Timestamp(ms E-10)	acc_X	acc_Y	acc_Z	
4185351	-0.539476	0.18822	9.59296
4185361	-0.554089	0.197847	9.59662
4185371	-0.622629	0.241343	9.62006
4185381	-0.641209	0.234084	9.52387
4185391	-0.628173	0.216006	9.3774
4185401	-0.600011	0.18771	9.38931
4185411	-0.568945	0.176786	9.52005
4185421	-0.427706	0.270827	9.64985
4185431	-0.531787	0.208161	9.62626
4185441	-0.687129	0.120597	9.74796
4185451	-0.627141	0.171576	9.87407
4185461	-0.628213	0.212754	9.80626
4185471	-0.653968	0.189728	9.83868
4185481	-0.701763	0.165799	9.83648
4185491	-0.744523	0.170356	9.82908
4185501	-0.753812	0.155915	9.82413
4185511	-0.761522	0.183639	9.78962
4185521	-0.767632	0.201097	9.72689
4185531	-0.752227	0.200639	9.70875
4185541	-0.70231	0.221032	9.75881
4185551	-0.616817	0.257025	9.85822
4185561	-0.64526	0.301954	9.9364
4185571	-0.626146	0.304201	10.0232
4185581	-0.544341	0.289822	10.0189
4185591	-0.582044	0.287291	9.92143
4185601	-0.550179	0.314481	9.86545
4185611	-0.0371237	0.465101	9.7775
4185621	0.36238	0.307384	9.75739
4185631	-0.040369	0.00247383	9.59372
4185641	-0.48055	0.230154	9.73829
4185651	-0.558962	0.344904	9.93562
4185661	-0.638593	0.222286	9.99122
4185671	-0.78677	0.157465	10.0699
4185681	-0.937354	0.165588	10.0179
4185691	-0.915863	0.188012	10.1473
4185701	-0.779853	0.115807	10.119
4185711	-0.623409	0.133941	9.89431
4185721	-0.522775	0.208077	9.80783
4185731	-0.431965	0.234303	9.89827
4185741	-0.287751	0.22946	9.89259
4185751	-0.299438	0.247274	9.84381
4185761	-0.461967	0.22788	9.83473
4185771	-0.519068	0.232409	9.82649
4185781	-0.442844	0.227919	9.83585
4185791	-0.438334	0.237583	9.84064
4185801	-0.469677	0.255604	9.80022
4185811	-0.434887	0.24297	9.86453
4185821	-0.389474	0.217778	9.99647
4185831	-0.39743	0.197958	9.96792
4185841	-0.446297	0.210442	9.89803
4185851	-0.502338	0.224013	9.87056
4185861	-0.511103	0.228395	9.85564
4185871	-0.512429	0.241096	9.79331
4185881	-0.565805	0.243913	9.71863
4185891	-0.570324	0.253314	9.71336
4185901	-0.536589	0.238959	9.71095
4185911	-0.497267	0.205183	9.69506
4185921	-0.482397	0.214501	9.68617
4185931	-0.474444	0.243852	9.71448
4185941	-0.479764	0.241529	9.80951
4185951	-0.528882	0.199146	9.83152
4185961	-0.57111	0.203459	9.81463
4185971	-0.604841	0.208281	9.81728
4185981	-0.597123	0.183112	9.76597
4185991	-0.592338	0.190446	9.68031
4186001	-0.637218	0.193771	9.62518
4186011	-0.636421	0.198172	9.61082
4186021	-0.583578	0.217221	9.60868
4186031	-0.556221	0.208358	9.63434
4186041	-0.566845	0.204061	9.65288
4186051	-0.56233	0.204192	9.65791
4186061	-0.572164	0.196972	9.74803
4186071	-0.605641	0.213413	9.8314
4186081	-0.614949	0.246636	9.82524
4186091	-0.612292	0.254948	9.77755
4186101	-0.57778	0.292659	9.75957
4186111	-0.574587	0.269569	9.78892
4186121	-0.588917	0.240941	9.78881
4186131	-0.564486	0.250278	9.78048
4186141	-0.553332	0.259098	9.75233
4186151	-0.566607	0.253812	9.73262
4186161	-0.572167	0.206505	9.74779
4186171	-0.529401	0.187647	9.75555
4186181	-0.533931	0.225648	9.74956
4186191	-0.537129	0.241413	9.80614
4186201	-0.476585	0.256572	9.8379
4186211	-0.479241	0.265119	9.79942
4186221	-0.454789	0.222024	9.79242
4186231	-0.409099	0.206589	9.74786
4186241	-0.429829	0.235882	9.77448
4186251	-0.436485	0.270094	9.80657
4186261	-0.431169	0.260326	9.79761
4186271	-0.618653	0.234396	9.72052
4186281	-0.731503	0.207267	9.59546
4186291	-0.516125	0.231412	9.60277
4186301	-0.470739	0.294573	9.64672
4186311	-0.607499	0.243215	9.69237
4186321	-0.702031	0.19231	9.75479
4186331	-0.772689	0.225042	9.73075
4186341	-0.794998	0.233794	9.70062
4186351	-0.771089	0.214777	9.70251
4186361	-0.727259	0.195431	9.69129
4186371	-0.709196	0.186425	9.71164
4186381	-0.710533	0.201336	9.73501
4186391	-0.676285	0.234403	9.72189
4186401	-0.610422	0.235026	9.74481
4186411	-0.601124	0.225636	9.75036
4186421	-0.589967	0.224921	9.72245
4186431	-0.549304	0.1667	9.68345
4186441	-0.555674	0.148357	9.71212
4186451	-0.579872	0.203073	9.79983
4186461	-0.591043	0.237152	9.82689
4186471	-0.578824	0.219092	9.86618
4186481	-0.584648	0.171906	9.8861
4186491	-0.578268	0.16165	9.85815
4186501	-0.589697	0.176785	9.89044
4186511	-0.599532	0.195954	9.89414
4186521	-0.588104	0.185585	9.86172
4186531	-0.572435	0.194535	9.8386
4186541	-0.565263	0.198214	9.79605
4186551	-0.632972	0.160313	9.80732
4186561	-0.655284	0.152206	9.86338
4186571	-0.649181	0.175438	9.83933
4186581	-0.652107	0.193639	9.80534
4186591	-0.62556	0.208975	9.84463
4186601	-0.602196	0.223567	9.85517
4186611	0.142919	0.492243	9.90176
4186621	-0.285935	0.347768	9.85635
4186631	-0.820406	0.0320759	9.64708
4186641	-0.250328	0.287102	9.90763
4186651	-0.56794	0.259191	9.75623
4186661	-0.691875	0.0780373	9.57725
4186671	-0.626589	0.145289	9.77949
4186681	-0.660339	0.214632	9.69475
4186691	-0.646791	0.200728	9.71019
4186701	-0.678121	0.190148	9.6705
4186711	-0.706812	0.209158	9.66833
4186721	-0.805088	0.224486	9.70979
4186731	-0.969477	0.201181	9.73405
4186741	-0.977178	0.188216	9.78634
4186751	-0.745869	0.225957	9.76565
4186761	-0.595018	0.239333	9.72655
4186771	-0.490112	0.2349	9.73761
4186781	-0.378301	0.239034	9.71074
4186791	-0.417349	0.253623	9.72236
4186801	-0.504467	0.268238	9.73592
4186811	-0.57086	0.263092	9.72261
4186821	-0.556513	0.248821	9.72382
4186831	-0.591035	0.234942	9.74119
4186841	-0.610418	0.225493	9.74506
4186851	-0.529413	0.216247	9.75482
4186861	-0.500473	0.240015	9.75116
4186871	-0.470988	0.230173	9.73885
4186881	-0.417873	0.234801	9.73234
4186891	-0.499682	0.258715	9.73644
4186901	-0.578553	0.231061	9.77538
4186911	-0.533933	0.230414	9.74943
4186921	-0.502608	0.276916	9.70246
4186931	-0.535001	0.240436	9.76817
4186941	-0.601943	0.278434	9.76327
4186951	-0.557055	0.272899	9.7327
4186961	-0.509755	0.206508	9.7467
4186971	-0.538727	0.263771	9.74831
4186981	-0.561576	0.27021	9.8135
4186991	-0.589726	0.269907	9.80232
4187001	-0.568474	0.264201	9.7656
4187011	-0.567392	0.220814	9.74771
4187021	-0.682891	0.166306	9.67083
4187031	-0.622128	0.252493	9.86755
4187041	-0.512986	0.281682	9.88753
4187051	-0.575621	0.215417	9.72354
4187061	-0.574032	0.212127	9.78089
4187071	-0.555443	0.234033	9.7052
4187081	-0.538715	0.256795	9.66273
4187091	-0.554126	0.266788	9.68062
4187101	-0.559449	0.295622	9.68911
4187111	-0.544053	0.297371	9.75667
4187121	-0.560247	0.274365	9.78965
4187131	-0.555451	0.236242	9.7909
4187141	-0.508443	0.231938	9.80807
4187151	-0.504468	0.251381	9.8221
4187161	-0.554131	0.237841	9.85287
4187171	-0.57617	0.236937	9.81824
4187181	-0.597134	0.206945	9.76536
4187191	-0.607227	0.20717	9.77429
4187201	-0.576976	0.256369	9.832
4187211	-0.537399	0.251069	9.81064
4187221	-0.535261	0.226258	9.77328
4187231	-0.521176	0.202579	9.77948
4187241	-0.524616	0.178124	9.75607
4187251	-0.538697	0.192272	9.75012
4187261	-0.538708	0.216105	9.74952
4187271	-0.548266	0.21132	9.74907
4187281	-0.567372	0.173148	9.74892
4187291	-0.644656	0.168593	9.75877
4187301	-0.665118	0.192999	9.78077
4187311	-0.585983	0.203674	9.82328
4187321	-0.486137	0.23272	9.83795
4187331	-0.47631	0.232617	9.83376
4187341	-0.475247	0.236896	9.81466
4187351	-0.425056	0.254957	9.77428
4187361	-0.463819	0.22176	9.78237
4187371	-0.502318	0.197972	9.78547
4187380	-0.497268	0.188326	9.78125
4187390	-0.454241	0.183647	9.7839
4187400	-0.423696	0.182848	9.75237
4187410	-0.400596	0.192797	9.76777
4187420	-0.379104	0.232078	9.81092
4187430	-0.377521	0.26471	9.7816
4187440	-0.411491	0.202923	9.79069
4187450	-0.672572	0.244434	9.74091
4187460	-0.640167	0.230691	9.76223
4187470	-0.387256	0.0360193	9.79159
4187480	-0.410368	0.0762939	9.68916
4187490	-0.525676	0.185936	9.68911
4187500	-0.669874	0.152648	9.69576
4187510	-0.642516	0.139017	9.72154
4187520	-0.613843	0.162908	9.72262
4187530	-0.648895	0.144507	9.74961
4187540	-0.661653	0.155488	9.80575
4187550	-0.68582	0.150795	9.80921
4187560	-0.68448	0.12635	9.78609
4187570	-0.662435	0.134578	9.73477
4187580	-0.6226	0.148222	9.70818
4187590	-0.593928	0.176879	9.70915
4187600	-0.589423	0.196078	9.71369
4187610	-0.598968	0.157927	9.71409
4187620	-0.587273	0.142668	9.67706
4187630	-0.54082	0.195807	9.70226
4187640	-0.537115	0.224905	9.7208
4187650	-0.532318	0.186782	9.72205
4187660	-0.550638	0.176844	9.70693
4187670	-0.598711	0.181636	9.70874
4187680	-0.57268	0.159083	9.75849
4187690	-0.561533	0.186969	9.72985
4187700	-0.610941	0.201905	9.75515
4187710	-0.59502	0.222477	9.81274
4187720	-0.569268	0.255034	9.78008
4187730	-0.57563	0.239249	9.72293
4187740	-0.592358	0.216488	9.7654
4187750	-0.595281	0.2083	9.81785
4187760	-0.598209	0.236033	9.78362
4187770	-0.58733	0.264041	9.75973
4187780	-0.582804	0.235573	9.76548
4187790	-0.592894	0.226266	9.77465
4187800	-0.576708	0.25148	9.82737
4187810	-0.572189	0.242079	9.83264
4187820	-0.590506	0.222609	9.81776
4187830	-0.595026	0.236776	9.81238
4187840	-0.559434	0.235867	9.77638
4187850	-0.579085	0.231305	9.78487
4187860	-0.587317	0.230675	9.76058
4187870	-0.55864	0.266656	9.6756
4187880	-0.531021	0.267202	9.69627
4187890	-0.569248	0.224226	9.6951
4187900	-0.612799	0.210084	9.70243
4187910	-0.596613	0.2353	9.75515
4187920	-0.628754	0.253687	9.72897
4187930	-0.638048	0.253546	9.72366
4187940	-0.649752	0.287869	9.76021
4187950	-0.646039	0.297901	9.77923
4187960	-0.617079	0.269238	9.7769
4187970	-0.563142	0.216302	9.7576
4187980	-0.537911	0.220505	9.73516
4187990	-0.561038	0.277289	9.71806
4188000	-0.564219	0.267013	9.68955
4188010	-0.541107	0.248361	9.70568
4188020	-0.499941	0.23977	9.74167
4188030	-0.496222	0.230736	9.76118
4188040	-0.552794	0.244553	9.7432
4188050	-0.625841	0.268852	9.7621
4188060	-0.610177	0.265713	9.82504
4188070	-0.535286	0.288223	9.77171
4188080	-0.469413	0.281872	9.70905
4188090	-0.428506	0.254336	9.75027
4188100	-0.452142	0.232544	9.83043
4188110	-0.472592	0.22835	9.85315
4188120	-0.49702	0.231102	9.77541
4188130	-0.520386	0.221277	9.76476
4188140	-0.512956	0.22704	9.80316
4188150	-0.541901	0.217571	9.80646
4188160	-0.527822	0.208191	9.81229
4188170	-0.519054	0.199043	9.82733
4188180	-0.548532	0.189817	9.84013
4188190	-0.554389	0.218897	9.8581
4188200	-0.5451	0.233337	9.86304
4188210	-0.553329	0.232707	9.83875
4188220	-0.585732	0.241684	9.81756
4188230	-0.568193	0.209091	9.84801
4188240	-0.538968	0.18507	9.84081
4188250	-0.551183	0.18883	9.80188
4188260	-0.571371	0.194047	9.81962
4188270	-0.559672	0.169257	9.78282
4188280	-0.564182	0.159593	9.77804
4188290	-0.567925	0.204203	9.84338
4188300	-0.555174	0.207521	9.78688
4188310	-0.53127	0.202803	9.78841
4188320	-0.497552	0.209723	9.87121
4188330	-0.533128	0.194124	9.82187
4188340	-0.573755	0.188171	9.77675
4188350	-0.550123	0.197876	9.78266
4188360	-0.552497	0.168166	9.74039
4188370	-0.575599	0.162985	9.72487
4188380	-0.576667	0.173006	9.74361
4188390	-0.571342	0.139406	9.73525
4188400	-0.533637	0.158793	9.7465
4188410	-0.517963	0.153446	9.72374
4188420	-0.555413	0.162535	9.70701
4188430	-0.580919	0.182285	9.7336
4188440	-0.589405	0.153179	9.71478
4188450	-0.566561	0.139416	9.73553
4188460	-0.555934	0.13418	9.71723
4188470	-0.546369	0.124666	9.71804
4188480	-0.531239	0.148161	9.70404
4188490	-0.569228	0.17656	9.69631
4188500	-0.570029	0.164837	9.79661
4188510	-0.535782	0.197905	9.7835
4188520	-0.537385	0.23456	9.7253
4188530	-0.583334	0.231051	9.77509
4188540	-0.604305	0.198503	9.80803
4188550	-0.590755	0.184598	9.82348
4188560	-0.55544	0.207644	9.79162
4188570	-0.567126	0.220691	9.74296
4188580	-0.610143	0.201538	9.74091
4188590	-0.60217	0.183225	9.77043
4188600	-0.616533	0.214005	9.85456
4188610	-0.621329	0.252127	9.85331
4188620	-0.602464	0.250079	9.77349
4188630	-0.606977	0.245179	9.76858
4188640	-0.621052	0.245028	9.76299
4188650	-0.596079	0.230289	9.74578
4188660	-0.561545	0.215569	9.72913
4188670	-0.549598	0.233554	9.6865
4188680	-0.537113	0.220139	9.72092
4188690	-0.56393	0.192835	9.77244
4188700	-0.568189	0.216413	9.76206
4188710	-0.53235	0.263047	9.72011
4188720	-0.545359	0.257641	9.69566
4188730	-0.53367	0.239824	9.74445
4188740	-0.535797	0.236036	9.78253
4188750	-0.56103	0.236599	9.80485
4188760	-0.582809	0.249872	9.76512
4188770	-0.601925	0.252391	9.67817
4188780	-0.580153	0.258184	9.71742
4188790	-0.549084	0.259352	9.7621
4188800	-0.567936	0.249657	9.75647
4188810	-0.575366	0.22227	9.80437
4188820	-0.576436	0.237059	9.82299
4188830	-0.579369	0.274326	9.78852
4188840	-0.541121	0.264871	9.79101
4188850	-0.524112	0.244611	9.74489
4188860	-0.530493	0.276491	9.68653
4188870	-0.546693	0.267785	9.71915
4188880	-0.545355	0.226484	9.78221
4188890	-0.541116	0.25057	9.79138
4188900	-0.555991	0.255552	9.7999
4188910	-0.578023	0.235582	9.76576
4188920	-0.562344	0.215935	9.74336
4188930	-0.54748	0.239552	9.73411
4188940	-0.557317	0.263488	9.73769
4188950	-0.572981	0.245003	9.76106
4188960	-0.583338	0.240584	9.77485
4188970	-0.566337	0.222535	9.81442
4188980	-0.572446	0.218369	9.83799
4188990	-0.593964	0.241054	9.79327
4189000	-0.572977	0.23547	9.7613
4189010	-0.54137	0.222094	9.79685
4189020	-0.590508	0.227375	9.81764
4189030	-0.607518	0.247634	9.86377
4189040	-0.546957	0.241517	9.81032
4189050	-0.544817	0.21194	9.77308
4189060	-0.568194	0.230713	9.7617
4189070	-0.56765	0.218726	9.66675
4189080	-0.565794	0.215314	9.71935
4189090	-0.553574	0.197255	9.75865
4189100	-0.560476	0.183923	9.79669
4189110	-0.556236	0.203243	9.80598
4189120	-0.555978	0.222187	9.80075
4189130	-0.584659	0.217362	9.79918
4189140	-0.548788	0.187731	9.75917
4189150	-0.537381	0.225027	9.72555
4189160	-0.557581	0.258843	9.74256
4189170	-0.569532	0.25039	9.78494
4189180	-0.589699	0.220033	9.71783
4189190	-0.604292	0.186759	9.72258
4189200	-0.603765	0.196049	9.71284
4189210	-0.569507	0.205282	9.70033
4189220	-0.56287	0.20188	9.75322
4189230	-0.561533	0.186969	9.72985
4189240	-0.556492	0.19639	9.72515
4189250	-0.563406	0.211658	9.76247
4189260	-0.551175	0.169765	9.80236
4189270	-0.566317	0.17487	9.81564
4189280	-0.558624	0.206901	9.76287
4189290	-0.573223	0.187926	9.76725
4189300	-0.578281	0.195015	9.8573
4189310	-0.553579	0.194697	9.84447
4189320	-0.535769	0.169305	9.78423
4189330	-0.554627	0.173911	9.77823
4189340	-0.550917	0.188708	9.79713
4189350	-0.535518	0.202549	9.77863
4189360	-0.567121	0.206391	9.74332
4189370	-0.542429	0.208283	9.81619
4189380	-0.510036	0.223139	9.83678
4189390	-0.522773	0.203311	9.80795
4189400	-0.545071	0.183463	9.77855
4189410	-0.548524	0.192375	9.7543
4189420	-0.557298	0.215822	9.7389
4189430	-0.590493	0.210866	9.73231
4189440	-0.575886	0.193915	9.81459
4189450	-0.545335	0.178819	9.78342
4189460	-0.530992	0.174081	9.78439
4189470	-0.550407	0.219273	9.87262
4189480	-0.544027	0.213783	9.84455
4189490	-0.522764	0.184244	9.80843
4189500	-0.503642	0.184282	9.80956
4189510	-0.477624	0.211953	9.77228
4189520	-0.505508	0.211529	9.75635
4189530	-0.498076	0.212525	9.79488
4189540	-0.468869	0.231405	9.78659
4189550	-0.466207	0.225416	9.73926
4189560	-0.460097	0.229581	9.71569
4189570	-0.480818	0.235043	9.74292
4189580	-0.48666	0.230756	9.76174
4189590	-0.491979	0.245289	9.77059
4189600	-0.552796	0.249319	9.74308
4189610	-0.56926	0.252825	9.69438
4189620	-0.549088	0.268885	9.76186
4189630	-0.556778	0.227321	9.81487
4189640	-0.593148	0.197789	9.78012
4189650	-0.604565	0.201181	9.72696
4189660	-0.588636	0.22431	9.69873
4189670	-0.60592	0.263758	9.74911
4189680	-0.601677	0.278312	9.75852
4189690	-0.566083	0.272635	9.72265
4189700	-0.576427	0.234849	9.73729
4189710	-0.613595	0.188827	9.80297
4189720	-0.624745	0.170475	9.83136
4189730	-0.61997	0.201642	9.7451
4189740	-0.605905	0.247248	9.66378
4189750	-0.575362	0.234361	9.71831
4189760	-0.58093	0.206119	9.73299
4189770	-0.605104	0.220491	9.73597
4189780	-0.60935	0.215471	9.72631
4189790	-0.599793	0.225024	9.72664
4189800	-0.590776	0.253886	9.73596
4189810	-0.58945	0.26281	9.71199
4189820	-0.567134	0.239757	9.74248
4189830	-0.571385	0.227413	9.81877
4189840	-0.596351	0.223087	9.83646
4189850	-0.618112	0.21032	9.71164
4189860	-0.596327	0.20437	9.66543
4189870	-0.541618	0.196175	9.7165
4189880	-0.557822	0.197001	9.74887
4189890	-0.564208	0.221558	9.77646
4189900	-0.556234	0.198477	9.8061
4189910	-0.55781	0.168402	9.7496
4189920	-0.523304	0.220412	9.73126
4189930	-0.53976	0.187994	9.76922
4189940	-0.569501	0.174126	9.78688
4189950	-0.568181	0.197348	9.76255
4189960	-0.54665	0.162921	9.72181
4189970	-0.520634	0.1785	9.77059
4189980	-0.540568	0.212194	9.78286
4189990	-0.565535	0.212635	9.80043
4190000	-0.562599	0.192225	9.74871
4190010	-0.536823	0.162818	9.71763
4190020	-0.563122	0.168636	9.75881
4190030	-0.582518	0.187785	9.76195
4190040	-0.601904	0.183103	9.76569
4190050	-0.571887	0.173016	9.74389
4190060	-0.515597	0.202221	9.76552
4190070	-0.529406	0.197181	9.75531
4190080	-0.522232	0.184	9.79894
4190090	-0.527823	0.212957	9.81217
4190100	-0.538215	0.294334	9.82379
4190110	-0.461439	0.258792	9.73869
4190120	-0.491153	0.195048	9.67186
4190130	-0.558352	0.192478	9.75849
4190140	-0.550653	0.193353	9.79227
4190150	-0.538715	0.235171	9.74903
4190160	-0.538963	0.192394	9.75487
4190170	-0.543473	0.161106	9.83639
4190180	-0.549314	0.173676	9.76902
4190190	-0.523298	0.206113	9.73162
4190200	-0.49966	0.201516	9.73789
4190210	-0.563403	0.185267	9.84889
4190220	-0.562873	0.189789	9.83928
4190230	-0.521975	0.202945	9.79371
4190240	-0.551455	0.203253	9.80626
4190250	-0.544549	0.207051	9.76846
4190260	-0.54268	0.191895	9.7356
4190270	-0.536314	0.198149	9.79299
4190280	-0.524105	0.208689	9.83156
4190290	-0.531536	0.202925	9.79315
4190300	-0.560236	0.245766	9.79037
4190310	-0.570861	0.246235	9.80879
4190320	-0.544031	0.223316	9.8443
4190330	-0.554378	0.211921	9.77252
4190340	-0.558094	0.211423	9.75326
4190350	-0.578013	0.21175	9.76637
4190360	-0.588647	0.231286	9.7843
4190370	-0.55041	0.250429	9.78607
4190380	-0.567928	0.230591	9.75696
4190390	-0.601916	0.211702	9.76496
4190400	-0.578019	0.226049	9.76601
4190410	-0.549342	0.240407	9.76733
4190420	-0.524378	0.244734	9.74963
4190430	-0.520123	0.230688	9.75977
4190440	-0.528894	0.249367	9.74449
4190450	-0.543772	0.259117	9.75289
4190460	-0.56793	0.235357	9.75683
4190470	-0.56023	0.231466	9.79074
4190480	-0.555985	0.241253	9.80027
4190490	-0.5666	0.234746	9.73311
4190500	-0.543749	0.201919	9.75434
4190510	-0.544836	0.259605	9.77187
4190520	-0.528104	0.268067	9.72976
4190530	-0.523572	0.225301	9.73588
4190540	-0.551197	0.222197	9.80103
4190550	-0.561813	0.198834	9.82006
4190560	-0.563676	0.221313	9.76697
4190570	-0.571649	0.239625	9.73745
4190580	-0.568995	0.235847	9.77582
4190590	-0.536341	0.26488	9.7913
4190600	-0.548025	0.273162	9.74275
4190610	-0.589189	0.255363	9.79319
4190620	-0.584929	0.227017	9.80369
4190630	-0.581998	0.216141	9.75173
4190640	-0.575632	0.244016	9.72281
4190649	-0.57192	0.254046	9.74183
4190659	-0.555989	0.250786	9.80002
4190669	-0.549884	0.264485	9.77622
4190679	-0.552806	0.273152	9.74247
4190689	-0.561564	0.263234	9.72792
4190699	-0.586248	0.220653	9.74184
4190709	-0.581453	0.187296	9.74297
4190719	-0.585973	0.196698	9.7377
4190729	-0.5836	0.231174	9.77984
4190739	-0.55837	0.235377	9.7574
4190749	-0.567921	0.211525	9.75744
4190759	-0.568457	0.221302	9.76669
4190769	-0.559172	0.245276	9.77139
4190779	-0.550133	0.221708	9.78205
4190789	-0.524364	0.211369	9.75048
4190799	-0.524629	0.206724	9.75535
4190809	-0.528871	0.192168	9.74594
4190819	-0.51985	0.2115	9.75551
4190829	-0.523564	0.206235	9.73637
4190839	-0.533393	0.211103	9.74043
4190849	-0.488303	0.324263	9.87361
4190859	-0.186795	0.191632	9.71846
4190869	0.081233	0.0754452	9.64667
4190879	0.184737	0.226363	9.76328
4190889	-0.384955	0.268479	9.74295
4190899	-1.14027	0.235798	9.78505
4190909	-1.02765	0.198875	9.83074
4190919	-0.736033	0.185163	9.84826
4190929	-0.625026	0.203963	9.83526
4190939	-0.593692	0.226632	9.78889
4190949	-0.612277	0.216816	9.77851
4190959	-0.630319	0.178156	9.75938
4190969	-0.615183	0.187351	9.74574
4190979	-0.55996	0.221811	9.78623
4190989	-0.537384	0.212937	9.81161
4190999	-0.55969	0.212156	9.78173
4191009	-0.551451	0.210577	9.72032
4191019	-0.527279	0.20097	9.71722
4191029	-0.49329	0.198236	9.79552
4191039	-0.489847	0.217923	9.81905
4191049	-0.507116	0.240861	9.7841
4191059	-0.497824	0.245769	9.78929
4191069	-0.486398	0.218543	9.84306
4191079	-0.526484	0.193279	9.78893
4191089	-0.546922	0.177342	9.72619
4191099	-0.530465	0.188135	9.77453
4191109	-0.545081	0.207296	9.77795
4191119	-0.554899	0.188333	9.78262
4191129	-0.565001	0.207624	9.79106
4191139	-0.555706	0.207766	9.79637
4191149	-0.555965	0.193587	9.80148
4191159	-0.568462	0.235601	9.76633
4191169	-0.56713	0.230224	9.74272
4191179	-0.544811	0.19764	9.77345
4191189	-0.542688	0.210962	9.73512
4191199	-0.532589	0.196438	9.72655
4191209	-0.52171	0.207589	9.78885
4191219	-0.541899	0.212805	9.80658
4191229	-0.530474	0.207202	9.77405
4191239	-0.547746	0.239674	9.73886
4191249	-0.570845	0.224959	9.72358
4191259	-0.581739	0.235085	9.7465
4191269	-0.600875	0.268413	9.74453
4191279	-0.59556	0.263411	9.73544
4191289	-0.609358	0.234537	9.72583
4191299	-0.566332	0.229857	9.72848
4191309	-0.543766	0.244817	9.75325
4191319	-0.576162	0.239493	9.73242
4191329	-0.579607	0.224573	9.70878
4191339	-0.571383	0.239503	9.73271
4191349	-0.545368	0.259851	9.78136
4191359	-0.532878	0.232135	9.81615
4191369	-0.558098	0.220956	9.75301
4191379	-0.581202	0.22054	9.73737
4191389	-0.564219	0.250156	9.77573
4191399	-0.558909	0.254687	9.7664
4191409	-0.556244	0.222309	9.8055
4191419	-0.546155	0.231617	9.79633
4191429	-0.549608	0.240529	9.77208
4191439	-0.569795	0.240979	9.78993
4191449	-0.583879	0.264662	9.78374
4191459	-0.529968	0.273689	9.76286
4191469	-0.547757	0.268273	9.73813
4191479	-0.563149	0.235368	9.75712
4191489	-0.530746	0.221624	9.77843
4191499	-0.540046	0.235782	9.77276
4191509	-0.579889	0.245971	9.79874
4191519	-0.603783	0.222091	9.79794
4191529	-0.583594	0.216874	9.7802
4191539	-0.561572	0.260677	9.81374
4191549	-0.537667	0.255958	9.81527
4191559	-0.53951	0.226005	9.76351
4191569	-0.537911	0.220505	9.73516
4191579	-0.54403	0.240172	9.75812
4191589	-0.536857	0.243849	9.71557
4191599	-0.532868	0.229925	9.73045
4191609	-0.527307	0.250844	9.80171
4191619	-0.529949	0.226024	9.76407
4191629	-0.525167	0.221268	9.76447
4191639	-0.502062	0.221683	9.78012
4191649	-0.521174	0.197812	9.7796
4191659	-0.530221	0.240445	9.76846
4191669	-0.492794	0.288555	9.78373
4191679	-0.431435	0.260448	9.80235
4191689	-0.36742	0.245419	9.77315
4191699	-0.270494	0.278366	9.7542
4191709	-0.212602	0.292538	9.74772
4191719	-0.284571	0.282982	9.74849
4191729	-0.484779	0.187001	9.72961
4191739	-0.638779	0.0870838	9.74213
4191749	-0.651539	0.10283	9.79815
4191759	-0.599774	0.160502	9.81403
4191769	-0.487715	0.207413	9.78133
4191779	-0.460094	0.203192	9.80212
4191789	-0.4978	0.18857	9.79074
4191799	-0.499663	0.211049	9.73765
4191809	-0.511348	0.197708	9.77542
4191819	-0.566049	0.169981	9.81101
4191829	-0.636958	0.169469	9.79256
4191839	-0.616247	0.18784	9.76472
4191849	-0.511884	0.207486	9.78466
4191859	-0.464873	0.198416	9.80196
4191869	-0.486102	0.168547	9.75382
4191879	-0.536821	0.158051	9.71775
4191889	-0.570289	0.167517	9.71554
4191899	-0.572683	0.168616	9.75825
4191909	-0.593134	0.164423	9.78097
4191919	-0.628979	0.153712	9.73625
4191929	-0.655008	0.149876	9.77293
4191939	-0.622341	0.145543	9.78926
4191949	-0.571085	0.163116	9.7299
4191959	-0.570825	0.177294	9.72479
4191969	-0.588884	0.181533	9.70456
4191979	-0.595513	0.149014	9.73835
4191989	-0.568963	0.159582	9.77775
4191999	-0.580662	0.20123	9.72837
4192009	-0.615197	0.220717	9.74489
4192019	-0.616529	0.226094	9.7685
4192029	-0.602713	0.207303	9.77932
4192039	-0.569255	0.221669	9.78092
4192049	-0.555969	0.219978	9.71505
4192059	-0.575872	0.182173	9.72913
4192069	-0.588095	0.183376	9.77602
4192079	-0.582784	0.187907	9.76669
4192089	-0.53817	0.201561	9.74039
4192099	-0.521702	0.205379	9.70315
4192109	-0.557806	0.158869	9.74984
4192119	-0.562584	0.154093	9.74968
4192129	-0.566586	0.201381	9.73395
4192139	-0.583076	0.249994	9.76987
4192149	-0.569527	0.236091	9.78531
4192159	-0.567924	0.221058	9.7572
4192169	-0.55836	0.233168	9.6717
4192179	-0.536591	0.243726	9.71083
4192189	-0.56024	0.255299	9.79013
4192199	-0.574317	0.259914	9.78442
4192209	-0.558643	0.254565	9.76166
4192219	-0.550408	0.245663	9.78619
4192229	-0.540846	0.240915	9.78687
4192239	-0.558643	0.254565	9.76166
4192249	-0.557843	0.249433	9.74754
4192259	-0.541375	0.253249	9.7103
4192269	-0.566879	0.268234	9.73701
4192279	-0.574055	0.269325	9.77943
4192289	-0.545368	0.259851	9.78136
4192299	-0.508181	0.241349	9.80308
4192309	-0.498622	0.246135	9.80352
4192319	-0.514562	0.27323	9.74472
4192329	-0.550417	0.286352	9.6994
4192339	-0.542707	0.258628	9.73391
4192349	-0.535525	0.221615	9.77815
4192359	-0.535791	0.221737	9.78289
4192369	-0.512161	0.236207	9.78868
4192379	-0.516143	0.23583	9.77417
4192389	-0.515075	0.225809	9.75543
4192399	-0.507099	0.197963	9.78519
4192409	-0.504447	0.19895	9.82343
4192419	-0.533669	0.235058	9.74457
4192429	-0.52916	0.24949	9.74923
4192439	-0.512431	0.245862	9.79319
4192449	-0.510299	0.235352	9.75547
4192459	-0.516675	0.236075	9.78366
4192469	-0.535014	0.273802	9.76733
4192479	-0.519076	0.273098	9.7397
4192489	-0.525172	0.235567	9.76411
4192499	-0.548006	0.225496	9.74397
4192509	-0.549338	0.230874	9.76757
4192519	-0.550399	0.22183	9.7868
4192529	-0.545615	0.212307	9.78732
4192539	-0.54002	0.173817	9.77433
4192549	-0.543742	0.187618	9.75471
4192559	-0.540576	0.23126	9.78237
4192569	-0.553321	0.230498	9.75305
4192579	-0.520118	0.216389	9.76013
4192589	-0.512958	0.231807	9.80304
4192599	-0.53739	0.227237	9.81125
4192609	-0.533134	0.208425	9.8215
4192619	-0.546144	0.203018	9.79705
4192629	-0.551723	0.208142	9.81089
4192639	-0.537395	0.241536	9.81088
4192649	-0.520931	0.254887	9.7734
4192659	-0.52385	0.237165	9.82609
4192669	-0.531034	0.257321	9.86803
4192679	-0.555187	0.219263	9.87234
4192689	-0.584106	0.169453	9.7909
4192699	-0.583048	0.183263	9.77156
4192709	-0.568716	0.185502	9.8581
4192719	-0.532584	0.165281	9.8131
4192729	-0.511877	0.193186	9.78503
4192739	-0.550674	0.245785	9.79094
4192749	-0.569527	0.236091	9.78531
4192759	-0.542165	0.212928	9.81133
4192769	-0.548533	0.194584	9.84
4192779	-0.561276	0.189056	9.81081
4192789	-0.521174	0.197812	9.7796
4192799	-0.508165	0.203218	9.80405
4192809	-0.528086	0.203547	9.81716
4192819	-0.541897	0.208038	9.8067
4192829	-0.539504	0.211705	9.76387
4192839	-0.532059	0.20096	9.71694
4192849	-0.522504	0.21528	9.71714
4192859	-0.531816	0.236412	9.79705
4192869	-0.539778	0.20927	9.85444
4192879	-0.54242	0.189217	9.81668
4192889	-0.571903	0.211148	9.74292
4192899	-0.550644	0.191143	9.70657
4192909	-0.531778	0.167471	9.71304
4192919	-0.527799	0.172614	9.72744
4192929	-0.52462	0.187657	9.75583
4192939	-0.552775	0.196888	9.74441
4192949	-0.523026	0.19169	9.72724
4192959	-0.498595	0.201028	9.71891
4192969	-0.518517	0.206122	9.7319
4192979	-0.538704	0.206573	9.74976
4192989	-0.530472	0.202435	9.77417
4192999	-0.527021	0.203057	9.79818
4193009	-0.527568	0.25829	9.72052
4193019	-0.566322	0.227648	9.64278
4193029	-0.572958	0.209428	9.67621
4193039	-0.533665	0.225525	9.74481
4193049	-0.518519	0.210889	9.73178
4193059	-0.509763	0.225574	9.74622
4193069	-0.525697	0.216745	9.77409
4193079	-0.535254	0.207192	9.77377
4193089	-0.555449	0.231476	9.79102
4193099	-0.541642	0.236515	9.80123
4193109	-0.53659	0.222103	9.79713
4193119	-0.591307	0.249365	9.74557
4193129	-0.580149	0.248651	9.71766
4193139	-0.539248	0.235415	9.75852
4193149	-0.54111	0.236271	9.79174
4193159	-0.555183	0.231354	9.78627
4193169	-0.562621	0.244657	9.74738
4193179	-0.540579	0.25765	9.69594
4193189	-0.537109	0.210606	9.72116
4193199	-0.542144	0.182118	9.72635
4193209	-0.532602	0.229803	9.72571
4193219	-0.540586	0.255093	9.78177
4193229	-0.57961	0.212483	9.79484
4193239	-0.614657	0.201406	9.73589
4193249	-0.623427	0.220087	9.7206
4193259	-0.627931	0.174499	9.80249
4193269	-0.669093	0.173556	9.76674
4193279	-0.670706	0.234046	9.70794
4193289	-0.630075	0.230466	9.7533
4193299	-0.659798	0.173698	9.77205
4193309	-0.703084	0.164201	9.7745
4193319	-0.698588	0.207232	9.77844
4193329	-0.657953	0.215741	9.73774
4193339	-0.640165	0.225924	9.76235
4193349	-0.593165	0.240687	9.77904
4193359	-0.566326	0.215558	9.72885
4193369	-0.585718	0.225175	9.73223
4193379	-0.556243	0.239166	9.71931
4193389	-0.541637	0.243839	9.71529
4193399	-0.556511	0.244055	9.72394
4193409	-0.537645	0.220383	9.73041
4193419	-0.520391	0.235577	9.76439
4193429	-0.55944	0.250166	9.77602
4193439	-0.578287	0.230938	9.77063
4193449	-0.553313	0.211432	9.75354
4193459	-0.560741	0.200903	9.71525
4193469	-0.540294	0.193006	9.77859
4193479	-0.50524	0.189782	9.83791
4193489	-0.500722	0.197239	9.757
4193499	-0.50073	0.216305	9.75651
4193509	-0.489855	0.236989	9.81856
4193519	-0.490129	0.256177	9.82282
4193529	-0.490393	0.251533	9.82769
4193539	-0.528631	0.237156	9.8258
4193549	-0.581214	0.232283	9.82283
4193559	-0.538464	0.251557	9.82962
4193569	-0.504202	0.251259	9.81736
4193579	-0.510039	0.232672	9.83654
4193589	-0.500205	0.213503	9.83284
4193599	-0.483201	0.207544	9.78635
4193609	-0.507373	0.217151	9.78945
4193619	-0.549878	0.250185	9.77658
4193629	-0.550942	0.250673	9.79556
4193639	-0.528627	0.227623	9.82605
4193649	-0.502854	0.207749	9.79472
4193659	-0.499921	0.192104	9.74288
4193669	-0.495152	0.215947	9.74256
4193679	-0.510825	0.221296	9.76532
4193689	-0.534993	0.22137	9.76866
4193699	-0.511618	0.207364	9.77992
4193709	-0.478414	0.193254	9.787
4193719	-0.491441	0.230745	9.76146
4193729	-0.500743	0.24967	9.75566
4193739	-0.470728	0.222728	9.82005
4193749	-0.498609	0.21277	9.80437
4193759	-0.556516	0.236732	9.80988
4193769	-0.562633	0.251632	9.83296
4193779	-0.506316	0.235727	9.76998
4193789	-0.503124	0.217404	9.79922
4193799	-0.554917	0.231232	9.78153
4193809	-0.553589	0.235387	9.75768
4193819	-0.535795	0.23127	9.78265
4193829	-0.530751	0.235924	9.77807
4193839	-0.554385	0.230987	9.77204
4193849	-0.577479	0.206739	9.757
4193859	-0.559953	0.202745	9.78672
4193869	-0.54694	0.198619	9.81141
4193879	-0.539768	0.207061	9.76874
4193889	-0.531278	0.221869	9.78792
4193899	-0.517458	0.19831	9.79886
4193909	-0.531278	0.221869	9.78792
4193919	-0.544022	0.199484	9.84491
4193928	-0.561273	0.179523	9.81105
4193938	-0.601388	0.220991	9.75523
4193948	-0.582015	0.25904	9.75064
4193958	-0.52545	0.264289	9.76813
4193968	-0.542706	0.237004	9.82021
4193978	-0.561823	0.222667	9.81945
4193988	-0.530742	0.212091	9.77867
4193998	-0.55756	0.206411	9.74389
4194008	-0.590481	0.182266	9.73303
4194018	-0.559689	0.20739	9.78185
4194028	-0.531025	0.255112	9.78233
4194038	-0.548278	0.239919	9.74835
4194048	-0.5488	0.216331	9.75844
4194058	-0.52224	0.219923	9.71227
4194068	-0.540833	0.229173	9.70142
4194078	-0.559685	0.21948	9.69579
4194088	-0.560755	0.234268	9.71441
4194098	-0.567924	0.221058	9.7572
4194108	-0.561017	0.224857	9.71939
4194118	-0.531006	0.22907	9.69723
4194128	-0.553053	0.22561	9.74843
4194138	-0.566056	0.205903	9.72434
4194148	-0.557814	0.199558	9.66305
4194158	-0.550658	0.224509	9.70572
4194168	-0.540564	0.219518	9.69691
4194178	-0.55358	0.233177	9.67198
4194188	-0.567659	0.242558	9.66615
4194198	-0.559155	0.224002	9.68618
4194208	-0.567938	0.254423	9.75635
4194218	-0.593975	0.269653	9.79255
4194228	-0.58226	0.20673	9.75672
4194238	-0.572678	0.17594	9.67231
4194248	-0.559661	0.162281	9.69724
4194258	-0.546127	0.164886	9.79802
4194268	-0.549854	0.192986	9.77803
4194278	-0.544545	0.197518	9.7687
4194288	-0.558612	0.178301	9.7636
4194298	-0.582264	0.216263	9.75648
4194308	-0.587045	0.216253	9.75619
4194318	-0.56604	0.16777	9.72531
4194328	-0.568178	0.19258	9.76267
4194338	-0.582811	0.233016	9.8513
4194348	-0.563146	0.204212	9.84366
4194358	-0.516919	0.183765	9.78973
4194368	-0.546942	0.203385	9.81129
4194378	-0.570855	0.231936	9.80916
4194388	-0.567133	0.218135	9.82878
4194398	-0.604573	0.203392	9.81266
4194408	-0.573762	0.202472	9.77638
4194418	-0.565803	0.217524	9.80505
4194428	-0.567144	0.246734	9.82806
4194438	-0.568481	0.261645	9.85142
4194448	-0.595836	0.265742	9.82588
4194458	-0.583598	0.226407	9.77996
4194468	-0.583326	0.211986	9.77558
4194478	-0.584661	0.222129	9.79906
4194488	-0.598736	0.221978	9.79347
4194498	-0.624501	0.244408	9.73898
4194508	-0.660094	0.266942	9.68867
4194518	-0.726206	0.223541	9.67159
4194528	-0.670181	0.252867	9.69796
4194538	-0.532899	0.30619	9.72851
4194548	-0.50472	0.234994	9.74151
4194558	-0.532589	0.196438	9.72655
4194568	-0.529157	0.239957	9.74947
4194578	-0.513229	0.246228	9.80742
4194588	-0.49276	0.202758	9.78591
4194598	-0.511606	0.200388	9.69434
4194608	-0.585168	0.182032	9.72382
4194618	-0.65661	0.164907	9.80104
4194628	-0.534977	0.183237	9.76963
4194638	-0.426369	0.21267	9.7991
4194648	-0.446025	0.217643	9.80734
4194658	-0.448677	0.216656	9.7691
4194668	-0.45984	0.231668	9.79664
4194678	-0.463024	0.230926	9.76789
4194688	-0.467265	0.211606	9.7586
4194698	-0.489325	0.24151	9.80895
4194708	-0.519349	0.270663	9.83026
4194718	-0.538726	0.242146	9.83461
4194728	-0.534721	0.206948	9.76428
4194738	-0.528072	0.191802	9.7317
4194748	-0.536575	0.188737	9.79798
4194758	-0.571378	0.208347	9.81925
4194768	-0.59131	0.237274	9.83164
4194778	-0.558124	0.266064	9.83763
4194788	-0.531559	0.260123	9.7917
4194798	-0.547229	0.255939	9.8147
4194808	-0.56157	0.25591	9.81386
4194818	-0.560483	0.198223	9.79633
4194828	-0.56367	0.18539	9.85364
4194838	-0.559968	0.219254	9.87205
4194848	-0.563945	0.204578	9.8579
4194858	-0.5743	0.217015	9.78551
4194868	-0.553062	0.249442	9.74782
4194878	-0.565278	0.236345	9.79508
4194888	-0.619985	0.21815	9.83043
4194898	-0.609094	0.217559	9.80727
4194908	-0.58226	0.20673	9.75672
4194918	-0.545081	0.207296	9.77795
4194928	-0.507107	0.217029	9.7847
4194938	-0.52199	0.241076	9.79275
4194948	-0.566086	0.260546	9.80871
4194958	-0.569797	0.245746	9.78981
4194968	-0.560487	0.207756	9.79609
4194978	-0.555972	0.207888	9.80111
4194988	-0.543749	0.201919	9.75434
4194998	-0.585444	0.205987	9.72796
4195008	-0.582268	0.225796	9.75623
4195018	-0.579072	0.19794	9.78571
4195028	-0.588099	0.192909	9.77578
4195038	-0.558358	0.206779	9.75812
4195048	-0.528607	0.196814	9.74107
4195058	-0.323666	0.330241	10.1023
4195068	-0.532863	0.237248	9.64451
4195078	-0.731971	0.093462	9.43634
4195088	-0.545341	0.171494	9.86936
4195098	-0.584902	0.18191	9.71908
4195108	-0.58094	0.213095	9.81857
4195118	-0.548274	0.208762	9.8349
4195128	-0.525681	0.178613	9.77506
4195138	-0.504964	0.182684	9.74759
4195148	-0.481596	0.187744	9.75836
4195158	-0.456896	0.170569	9.83172
4195168	-0.491672	0.14507	9.76838
4195178	-0.522208	0.143659	9.71421
4195188	-0.507879	0.15543	9.80051
4195198	-0.479208	0.184087	9.80148
4195208	-0.478694	0.226742	9.7909
4195218	-0.477083	0.192642	9.76327
4195228	-0.459016	0.169337	9.78398
4195238	-0.428479	0.170749	9.83815
4195248	-0.339487	0.105057	9.87841
4195258	-0.132314	0.0666056	9.863
4195268	0.139401	0.0224152	9.80866
4195278	0.130897	0.0409727	9.78863
4195288	-0.414956	0.25729	9.67953
4195298	-0.870217	0.385558	9.66852
4195308	-0.801674	0.315671	9.7315
4195318	-0.722245	0.259493	9.77096
4195328	-0.732347	0.278784	9.7794
4195338	-0.668332	0.263755	9.7502
4195348	-0.768419	0.275123	9.65296
4195358	-0.891659	0.302982	9.62593
4195368	-0.839331	0.262521	9.72056
4195378	-0.897498	0.289162	9.645
4195388	-1.01171	0.326818	9.62779
4195398	-0.932837	0.301692	9.7617
4195408	-0.756477	0.268929	9.78245
4195418	-0.646779	0.257529	9.70821
4195428	-0.637485	0.257671	9.71352
4195438	-0.64971	0.268407	9.76017
4195448	-0.632716	0.264657	9.79938
4195458	-0.598174	0.230869	9.78321
4195468	-0.587284	0.235044	9.75993
4195478	-0.609316	0.215074	9.72579
4195488	-0.599207	0.176717	9.71782
4195498	-0.622332	0.20711	9.78716
4195508	-0.627384	0.221523	9.79126
4195518	-0.58914	0.238457	9.70732
4195528	-0.589936	0.234056	9.72168
4195538	-0.619968	0.260653	9.82881
4195548	-0.600317	0.265213	9.82033
4195558	-0.592593	0.225746	9.76938
4195568	-0.623405	0.248288	9.71935
4195578	-0.627945	0.310122	9.71275
4195588	-0.701475	0.215502	9.74417
4195598	-0.725633	0.186975	9.74823
4195608	-0.692997	0.258909	9.76262
4195618	-0.693771	0.202076	9.77831
4195628	-0.686875	0.212852	9.82609
4195638	-0.670948	0.23598	9.79785
4195648	-0.633496	0.243748	9.7284
4195658	-0.589419	0.271945	9.71122
4195668	-0.550917	0.290966	9.70824
4195678	-0.551958	0.234256	9.72868
4195688	-0.562045	0.220182	9.73797
4195698	-0.560455	0.233748	9.70913
4195708	-0.564962	0.219316	9.70447
4195718	-0.59391	0.214615	9.70765
4195728	-0.681813	0.196229	9.73629
4195738	-0.904891	0.149587	9.7815
4195748	-0.780619	0.20227	9.78749
4195758	-0.438043	0.277754	9.74857
4195768	-0.426075	0.248074	9.70715
4195778	-0.487682	0.211782	9.78067
4195788	-0.522222	0.240802	9.79696
4195798	-0.523294	0.28198	9.72915
4195808	-0.576673	0.267941	9.74066
4195818	-0.58224	0.239697	9.75534
4195828	-0.553019	0.225212	9.7479
4195838	-0.530972	0.211816	9.78289
4195848	-0.511593	0.230799	9.77878
4195858	-0.534696	0.225616	9.76326
4195868	-0.507078	0.23093	9.78381
4195878	-0.497525	0.250015	9.78389
4195888	-0.510264	0.234954	9.75494
4195898	-0.494595	0.239138	9.73193
4195908	-0.505211	0.220542	9.75083
4195918	-0.536287	0.216817	9.79198
4195928	-0.523017	0.231635	9.81144
4195938	-0.508393	0.193409	9.80851
4195948	-0.503608	0.179119	9.80915
4195958	-0.503878	0.188774	9.81365
4195968	-0.521934	0.188247	9.79355
4195978	-0.509188	0.184242	9.82298
4195988	-0.504938	0.17973	9.83288
4195998	-0.523261	0.179325	9.81752
4196008	-0.518227	0.207812	9.81233
4196018	-0.50998	0.191933	9.75128
4196028	-0.514759	0.187157	9.75112
4196038	-0.570016	0.216872	9.79475
4196048	-0.584874	0.174189	9.80449
4196058	-0.540512	0.159365	9.78366
4196068	-0.545302	0.183187	9.78277
4196078	-0.531499	0.19776	9.79274
4196088	-0.535748	0.197506	9.78297
4196098	-0.552746	0.210791	9.74352
4196108	-0.575595	0.234085	9.72252
4196118	-1.02103	0.371785	9.70709
4196128	-0.819441	0.295211	9.87813
4196138	-0.341768	-0.0464239	9.75294
4196148	-0.520793	0.0403423	9.6068
4196158	-0.531264	0.273903	9.78606
4196168	-0.505763	0.268452	9.75911
4196178	-0.507596	0.197808	9.79415
4196188	-0.504137	0.196219	9.73246
4196198	-0.508132	0.224443	9.71721
4196208	-0.464079	0.292982	9.78477
4196218	-0.570268	0.200484	9.71416
4196228	-0.605299	0.129652	9.74248
4196238	-0.558329	0.22068	9.75723
4196248	-0.626318	0.216268	9.7724
4196258	-0.609059	0.217161	9.80674
4196268	-0.603477	0.212039	9.79291
4196278	-0.580103	0.19803	9.80417
4196288	-0.579052	0.230907	9.78434
4196298	-0.599243	0.240891	9.80195
4196308	-0.61012	0.208117	9.82596
4196318	-0.616483	0.197098	9.7687
4196328	-0.60189	0.230371	9.76395
4196338	-0.61118	0.220695	9.75888
4196348	-0.605592	0.196506	9.74553
4196358	-0.571613	0.217605	9.82323
4196368	-0.585422	0.212565	9.81301
4196378	-0.604529	0.200783	9.72643
4196388	-0.586477	0.215611	9.74617
4196398	-0.585159	0.221976	9.80803
4196408	-0.5849	0.236154	9.80292
4196418	-0.58781	0.220989	9.76978
4196428	-0.619397	0.1867	9.73544
4196438	-0.626027	0.15418	9.76922
4196448	-0.599214	0.169394	9.80377
4196458	-0.591531	0.230023	9.75027
4196468	-0.59072	0.201057	9.73676
4196478	-0.580344	0.157811	9.72418
4196488	-0.619135	0.196111	9.73045
4196498	-0.646238	0.216595	9.78551
4196508	-0.612237	0.202118	9.77835
4196518	-0.611175	0.206396	9.75925
4196528	-0.652086	0.243464	9.71778
4196538	-0.632432	0.243258	9.70942
4196548	-0.598961	0.22426	9.71187
4196558	-0.590985	0.218037	9.65533
4196568	-0.602929	0.190517	9.6982
4196578	-0.614628	0.215309	9.73499
4196588	-0.593646	0.219259	9.70278
4196598	-0.598163	0.223894	9.69763
4196608	-0.626588	0.242779	9.69071
4196618	-0.638271	0.229439	9.72848
4196628	-0.607464	0.221194	9.77815
4196638	-0.570283	0.216994	9.7995
4196648	-0.57852	0.230663	9.77485
4196658	-0.586493	0.253744	9.7452
4196668	-0.598978	0.267159	9.71078
4196678	-0.610661	0.270675	9.66236
4196688	-0.623151	0.276766	9.71388
4196698	-0.62952	0.258424	9.74255
4196708	-0.623659	0.219811	9.72482
4196718	-0.619946	0.225077	9.74396
4196728	-0.594717	0.234047	9.7214
4196738	-0.583831	0.247755	9.69787
4196748	-0.621291	0.263821	9.76672
4196758	-0.603763	0.25506	9.79656
4196768	-0.58517	0.245809	9.80742
4196778	-0.575604	0.236295	9.80822
4196788	-0.553285	0.225334	9.75265
4196798	-0.583033	0.225765	9.76994
4196808	-0.584627	0.221732	9.79853
4196818	-0.565238	0.221649	9.79491
4196828	-0.574539	0.235806	9.78924
4196838	-0.555695	0.264567	9.79439
4196848	-0.554628	0.259312	9.77553
4196858	-0.566041	0.253171	9.7226
4196868	-0.566311	0.262826	9.72711
4196878	-0.578265	0.259141	9.76937
4196888	-0.588881	0.235777	9.7884
4196898	-0.57799	0.235186	9.76523
4196908	-0.58542	0.229422	9.72683
4196918	-0.608792	0.233895	9.71581
4196928	-0.58305	0.268664	9.76885
4196938	-0.565252	0.255015	9.79407
4196948	-0.571882	0.244117	9.74155
4196958	-0.564705	0.23826	9.69924
4196968	-0.583018	0.214023	9.68448
4196978	-0.570806	0.215029	9.72329
4196988	-0.558861	0.220925	9.76672
4196998	-0.552492	0.239267	9.73805
4197008	-0.57268	0.244483	9.75578
4197018	-0.612507	0.211774	9.78285
4197028	-0.574801	0.226396	9.79423
4197038	-0.575335	0.22664	9.80372
4197048	-0.62234	0.226176	9.78667
4197058	-0.617033	0.240241	9.7771
4197068	-0.615692	0.215797	9.75398
4197078	-0.586202	0.191656	9.74203
4197088	-0.58382	0.202298	9.78478
4197098	-0.577185	0.198895	9.83767
4197108	-0.548228	0.179766	9.83509
4197118	-0.565232	0.20735	9.79528
4197128	-0.603204	0.192849	9.78864
4197138	-0.612501	0.197474	9.78322
4197148	-0.592063	0.230268	9.75977
4197158	-0.569757	0.231049	9.78965
4197168	-0.581971	0.213186	9.83702
4197178	-0.600298	0.20069	9.90772
4197188	-0.576929	0.205749	9.9185
4197198	-0.568419	0.189749	9.85271
4197208	-0.571606	0.198538	9.82371
4197217	-0.590724	0.188967	9.82283
4197227	-0.527504	0.164772	9.80811
4197237	-0.517949	0.17909	9.80831
4197247	-0.592593	0.225746	9.76938
4197257	-0.587009	0.215856	9.75566
4197267	-0.592835	0.16867	9.77558
4197277	-0.605567	0.134541	9.74711
4197287	-0.610085	0.143942	9.74184
4197297	-0.57689	0.148898	9.74843
4197307	-0.574772	0.154897	9.79605
4197317	-0.582222	0.175176	9.84274
4197327	-0.542642	0.160342	9.82162
4197337	-0.564136	0.125829	9.77835
4197347	-0.611686	0.154208	9.77007
4197357	-0.619407	0.210533	9.73483
4197367	-0.607982	0.20493	9.7023
4197377	-0.618337	0.195744	9.71622
4197387	-0.618065	0.181322	9.71183
4197397	-0.613024	0.195509	9.70701
4197407	-0.636409	0.228583	9.69526
4197417	-0.65181	0.219509	9.71364
4197427	-0.625525	0.225433	9.75792
4197437	-0.619149	0.229477	9.7296
4197447	-0.646489	0.200208	9.70492
4197457	-0.627096	0.185825	9.70166
4197467	-0.628172	0.214913	9.71991
4197477	-0.63163	0.233359	9.69542
4197487	-0.611961	0.199786	9.6879
4197497	-0.62843	0.195969	9.72514
4197507	-0.63294	0.186304	9.72036
4197517	-0.62338	0.186323	9.72092
4197527	-0.621276	0.225688	9.76769
4197537	-0.646238	0.216595	9.78551
4197547	-0.629491	0.186925	9.74437
4197557	-0.593383	0.207047	9.7841
4197567	-0.627384	0.221523	9.79126
4197577	-0.621269	0.211389	9.76805
4197587	-0.60745	0.187828	9.77899
4197597	-0.619959	0.236819	9.82942
4197607	-0.604831	0.265081	9.8153
4197617	-0.616495	0.225698	9.76797
4197627	-0.631113	0.249623	9.77127
4197637	-0.621284	0.244754	9.76721
4197647	-0.632437	0.231169	9.79548
4197657	-0.632187	0.273946	9.78964
4197667	-0.638022	0.272215	9.72264
4197677	-0.620212	0.225199	9.74871
4197687	-0.608802	0.236105	9.80151
4197697	-0.601895	0.244671	9.76359
4197707	-0.585155	0.234066	9.72196
4197717	-0.614899	0.224964	9.7395
4197727	-0.58727	0.201677	9.76077
4197737	-0.586207	0.205956	9.74167
4197747	-0.611985	0.235362	9.77276
4197757	-0.600293	0.208014	9.82178
4197767	-0.60613	0.21105	9.75466
4197777	-0.614636	0.234375	9.73451
4197787	-0.615422	0.206142	9.74947
4197797	-0.623119	0.2005	9.71581
4197807	-0.598692	0.219372	9.70724
4197817	-0.580113	0.243486	9.71726
4197827	-0.588612	0.247746	9.69759
4197837	-0.576123	0.224797	9.73226
4197847	-0.566567	0.239116	9.73246
4197857	-0.575329	0.233963	9.71778
4197867	-0.602415	0.216316	9.7738
4197877	-0.607474	0.245027	9.77754
4197887	-0.592865	0.240168	9.77376
4197897	-0.556721	0.191347	9.72949
4197907	-0.55274	0.19649	9.74388
4197917	-0.570016	0.216872	9.79475
4197927	-0.555936	0.202724	9.80071
4197937	-0.587538	0.206568	9.7654
4197947	-0.600015	0.200916	9.73146
4197957	-0.592045	0.187368	9.76086
4197967	-0.607184	0.187706	9.77425
4197977	-0.584878	0.183722	9.80425
4197987	-0.572413	0.222738	9.83734
4197997	-0.564718	0.250003	9.7847
4198007	-0.572945	0.239839	9.76065
4198017	-0.575068	0.226518	9.79898
4198027	-0.563904	0.211505	9.77143
4198037	-0.578515	0.22113	9.77509
4198047	-0.59074	0.227099	9.82186
4198057	-0.601108	0.246513	9.83505
4198067	-0.617829	0.235842	9.79146
4198077	-0.602136	0.182828	9.7699
4198087	-0.607443	0.168762	9.77948
4198097	-0.589132	0.202534	9.79399
4198107	-0.575348	0.260006	9.80287
4198117	-0.603226	0.245281	9.78731
4198127	-0.566835	0.222382	9.82339
4198137	-0.560455	0.216892	9.79532
4198147	-0.571064	0.196084	9.72852
4198157	-0.572394	0.196695	9.75225
4198167	-0.580624	0.169676	9.81438
4198177	-0.599482	0.174282	9.80839
4198187	-0.601341	0.191994	9.75543
4198197	-0.562284	0.153572	9.74441
4198207	-0.563881	0.154305	9.77288
4198217	-0.582488	0.19692	9.76118
4198227	-0.591254	0.206069	9.74613
4198237	-0.599207	0.176717	9.71782
4198247	-0.582488	0.19692	9.76118
4198257	-0.562319	0.217748	9.82854
4198267	-0.555401	0.197712	9.79134
4198277	-0.587523	0.168435	9.76637
4198287	-0.601851	0.13504	9.76637
4198297	-0.578218	0.144743	9.77228
4198307	-0.547949	0.167901	9.74489
4198317	-0.555125	0.173758	9.7872
4198327	-0.59152	0.184567	9.83718
4198337	-0.588323	0.173568	9.78048
4198347	-0.562026	0.172517	9.73918
4198357	-0.579557	0.186044	9.70922
4198367	-0.569992	0.17653	9.71002
4198377	-0.569716	0.152575	9.70588
4198387	-0.618599	0.186333	9.7212
4198397	-0.605601	0.220339	9.74493
4198407	-0.5732	0.216129	9.766
4198417	-0.583562	0.221243	9.77955
4198427	-0.601879	0.206539	9.76455
4198437	-0.602928	0.168895	9.7845
4198447	-0.583541	0.168811	9.78088
4198457	-0.58515	0.198143	9.80863
4198467	-0.624725	0.203444	9.82999
4198477	-0.584352	0.202543	9.79427
4198487	-0.569218	0.216505	9.78052
4198497	-0.620748	0.234976	9.75796
4198507	-0.598965	0.233793	9.71163
4198517	-0.573995	0.223819	9.69429
4198527	-0.605328	0.20115	9.74067
4198537	-0.632665	0.16235	9.71622
4198547	-0.613286	0.186098	9.71199
4198557	-0.614622	0.201009	9.73536
4198567	-0.639048	0.177373	9.74405
4198577	-0.624444	0.186812	9.7399
4198587	-0.61436	0.210421	9.73037
4198597	-0.630825	0.197069	9.76785
4198607	-0.593122	0.221224	9.77899
4198617	-0.573993	0.202195	9.7806
4198627	-0.590169	0.131524	9.81479
4198637	-0.585129	0.145711	9.80996
4198647	-0.592583	0.201913	9.76998
4198657	-0.574269	0.226151	9.78474
4198667	-0.58248	0.177855	9.76166
4198677	-0.599475	0.181605	9.72245
4198687	-0.599229	0.229149	9.71649
4198697	-0.60454	0.224616	9.72582
4198707	-0.616755	0.21152	9.77308
4198717	-0.635337	0.192171	9.76295
4198727	-0.632684	0.210015	9.71501
4198737	-0.606402	0.225471	9.75904
4198747	-0.605326	0.196383	9.74079
4198757	-0.601327	0.175485	9.67009
4198767	-0.610641	0.201385	9.74988
4198777	-0.622602	0.216766	9.79166
4198787	-0.607196	0.216306	9.77352
4198797	-0.602154	0.225727	9.76882
4198807	-0.597919	0.259347	9.77774
4198817	-0.602967	0.264226	9.78208
4198827	-0.617565	0.240485	9.78659
4198837	-0.634284	0.220282	9.74324
4198847	-0.623653	0.205512	9.72518
4198857	-0.591781	0.192013	9.75599
4198867	-0.58062	0.181766	9.72832
4198877	-0.628975	0.224813	9.73391
4198887	-0.660056	0.235388	9.77469
4198897	-0.655543	0.240286	9.77959
4198907	-0.633233	0.226768	9.80984
4198917	-0.599755	0.19347	9.81265
4198927	-0.617817	0.207243	9.79218
4198937	-0.671484	0.245757	9.8071
4198947	-0.699899	0.262434	9.71448
4198957	-0.687672	0.246931	9.66796
4198967	-0.669621	0.244902	9.77388
4198977	-0.60615	0.237093	9.83976
4198987	-0.554351	0.208966	9.85781
4198997	-0.557262	0.193801	9.82468
4199007	-0.580088	0.181521	9.71883
4199017	-0.594416	0.148127	9.71883
4199027	-0.606645	0.168396	9.76524
4199037	-0.596829	0.196892	9.76033
4199047	-0.567883	0.206361	9.75703
4199057	-0.569218	0.216505	9.78052
4199067	-0.56921	0.197438	9.781
4199077	-0.571313	0.153308	9.73435
4199087	-0.578764	0.178353	9.78092
4199097	-0.555946	0.226557	9.8001
4199107	-0.537865	0.191508	9.73536
4199117	-0.537319	0.157898	9.72671
4199127	-0.581424	0.196432	9.74219
4199137	-0.58223	0.215865	9.75595
4199147	-0.56336	0.18266	9.76266
4199157	-0.583007	0.1638	9.77151
4199167	-0.583277	0.173455	9.77602
4199177	-0.579034	0.188008	9.78543
4199187	-0.569478	0.202327	9.78563
4199197	-0.55327	0.191968	9.75349
4199207	-0.568936	0.17825	9.77674
4199217	-0.59525	0.217435	9.81707
4199227	-0.596839	0.220725	9.75973
4199237	-0.577175	0.196686	9.75197
4199247	-0.564979	0.235826	9.78981
4199257	-0.5671	0.23936	9.74195
4199267	-0.567085	0.205995	9.7428
4199277	-0.586205	0.201189	9.74179
4199287	-0.582224	0.201565	9.75631
4199297	-0.570534	0.178984	9.80521
4199307	-0.577958	0.158921	9.76717
4199317	-0.580616	0.172233	9.72856
4199327	-0.593109	0.187858	9.77984
4199337	-0.602402	0.18295	9.77465
4199347	-0.57982	0.176633	9.7142
4199357	-0.581431	0.215499	9.74171
4199367	-0.590452	0.196169	9.73214
4199377	-0.582214	0.177732	9.75691
4199387	-0.599759	0.203003	9.81241
4199397	-0.610905	0.19674	9.75474
4199407	-0.618601	0.191099	9.72108
4199417	-0.620463	0.191955	9.7543
4199427	-0.62338	0.186323	9.72092
4199437	-0.602131	0.19015	9.68396
4199447	-0.594178	0.219503	9.71227
4199457	-0.575857	0.224674	9.72751
4199467	-0.553819	0.230345	9.76202
4199477	-0.583828	0.221365	9.7843
4199487	-0.576911	0.20133	9.7471
4199497	-0.5623	0.191705	9.74344
4199507	-0.562024	0.16775	9.7393
4199517	-0.569998	0.190829	9.70966
4199527	-0.589666	0.224401	9.71718
4199537	-0.567091	0.220294	9.74243
4199547	-0.56603	0.224571	9.72333
4199557	-0.570018	0.238495	9.70845
4199567	-0.57399	0.214286	9.69454
4199577	-0.559363	0.166528	9.69184
4199587	-0.545554	0.166801	9.70218
4199597	-0.579023	0.181033	9.69985
4199607	-0.624708	0.182168	9.74477
4199617	-0.629761	0.19658	9.74887
4199627	-0.599751	0.205561	9.72659
4199637	-0.601073	0.187105	9.7508
4199647	-0.615683	0.191964	9.75458
4199657	-0.614622	0.201009	9.73536
4199667	-0.605312	0.163018	9.74163
4199677	-0.597624	0.187726	9.77481
4199687	-0.597912	0.24028	9.77822
4199697	-0.625268	0.249144	9.75257
4199707	-0.635617	0.225659	9.76685
4199717	-0.597906	0.225981	9.77859
4199727	-0.58754	0.211334	9.76528
4199737	-0.599489	0.193348	9.80791
4199747	-0.601361	0.218037	9.84052
4199757	-0.554342	0.211524	9.77199
4199767	-0.536268	0.190775	9.70688
4199777	-0.560703	0.190971	9.71497
4199787	-0.58595	0.2249	9.73644
4199797	-0.593389	0.221346	9.78374
4199807	-0.568946	0.202083	9.77614
4199817	-0.58275	0.18751	9.76616
4199827	-0.597358	0.187604	9.77007
4199837	-0.543712	0.196754	9.75393
4199847	-0.555142	0.216657	9.78611
4199857	-0.6226	0.212	9.79178
4199867	-0.622602	0.216766	9.79166
4199877	-0.607996	0.221438	9.78764
4199887	-0.608524	0.229007	9.71119
4199897	-0.61516	0.232409	9.6583
4199907	-0.610908	0.223131	9.66832
4199917	-0.570538	0.21014	9.71867
4199927	-0.58169	0.196554	9.74694
4199937	-0.602945	0.211794	9.78341
4199947	-0.584898	0.231387	9.80304
4199957	-0.593387	0.216579	9.78386
4199967	-0.604025	0.245648	9.80155
4199977	-0.592867	0.244934	9.77364
4199987	-0.602674	0.197371	9.77903
4199997	-0.609059	0.217161	9.80674
4200007	-0.630311	0.239723	9.75727
4200017	-0.618357	0.243409	9.715
4200027	-0.584355	0.228933	9.70785
4200037	-0.571864	0.201218	9.74264
4200047	-0.559648	0.192692	9.78169
4200057	-0.545844	0.207265	9.79166
4200067	-0.539735	0.211431	9.76809
4200077	-0.558853	0.201859	9.76721
4200087	-0.574793	0.20733	9.79471
4200097	-0.609586	0.203105	9.81659
4200107	-0.603464	0.178673	9.79375
4200117	-0.597618	0.173427	9.77517
4200127	-0.62152	0.173378	9.77377
4200137	-0.615154	0.201253	9.74485
4200147	-0.603208	0.202382	9.7884
4200157	-0.585669	0.165022	9.81897
4200167	-0.580895	0.184097	9.81877
4200177	-0.599491	0.198114	9.80779
4200187	-0.603476	0.207273	9.79303
4200197	-0.579309	0.211964	9.78957
4200207	-0.55938	0.187803	9.77706
4200217	-0.573721	0.187774	9.77622
4200227	-0.572126	0.191807	9.74762
4200237	-0.566534	0.158085	9.73452
4200247	-0.612486	0.159342	9.78418
4200257	-0.624984	0.1845	9.83522
4200267	-0.59498	0.20778	9.81257
4200277	-0.586745	0.2205	9.7508
4200287	-0.597095	0.197015	9.76508
4200297	-0.577973	0.197053	9.7662
4200307	-0.600286	0.215339	9.73584
4200317	-0.644368	0.196672	9.75277
4200327	-0.618078	0.193065	9.79729
4200337	-0.592585	0.20668	9.76986
4200347	-0.597103	0.216082	9.76459
4200357	-0.615433	0.229975	9.74887
4200367	-0.613288	0.190865	9.71187
4200377	-0.586732	0.187134	9.75165
4200387	-0.578518	0.225897	9.77497
4200397	-0.617555	0.216653	9.7872
4200407	-0.632681	0.178859	9.80156
4200417	-0.601598	0.168283	9.76078
4200427	-0.619403	0.200999	9.73508
4200437	-0.6016	0.17305	9.76066
4200447	-0.570786	0.167363	9.7245
4200457	-0.593369	0.190537	9.69876
4200467	-0.605854	0.187095	9.75052
4200477	-0.601881	0.211306	9.76443
4200487	-0.568942	0.19255	9.77638
4200497	-0.568668	0.173362	9.77212
4200507	-0.610378	0.210796	9.74489
4200516	-0.60693	0.216184	9.76878
4200526	-0.607449	0.183062	9.77911
4200536	-0.615158	0.210787	9.74461
4200546	-0.590476	0.253368	9.73069
4200556	-0.597112	0.235147	9.76411
4200566	-0.603741	0.202627	9.79789
4200576	-0.588866	0.202411	9.78925
4200586	-0.611176	0.211163	9.75912
4200596	-0.611431	0.182686	9.7646
4200606	-0.613297	0.188308	9.79769
4200616	-0.623933	0.217377	9.81539
4200626	-0.584889	0.212321	9.80352
4200636	-0.573732	0.216373	9.77549
4200646	-0.59019	0.20558	9.72715
4200656	-0.617269	0.185722	9.69748
4200666	-0.628693	0.186559	9.73013
4200676	-0.590718	0.196291	9.73689
4200686	-0.553274	0.201501	9.75325
4200696	-0.568151	0.211249	9.76166
4200706	-0.595245	0.224759	9.73113
4200716	-0.606944	0.249549	9.76793
4200726	-0.615971	0.244518	9.758
4200736	-0.617543	0.188053	9.78792
4200746	-0.584608	0.174067	9.79974
4200756	-0.576103	0.177132	9.73347
4200766	-0.570012	0.207339	9.795
4200776	-0.585432	0.236398	9.81241
4200786	-0.61622	0.20651	9.76371
4200796	-0.624726	0.225067	9.74368
4200806	-0.605328	0.20115	9.74067
4200816	-0.571596	0.196329	9.73801
4200826	-0.567887	0.215894	9.75679
4200836	-0.580383	0.231519	9.80806
4200846	-0.630305	0.225424	9.75764
4200856	-0.656577	0.186133	9.71421
4200866	-0.611684	0.171065	9.68388
4200876	-0.588058	0.195068	9.68943
4200886	-0.607446	0.195151	9.69305
4200896	-0.608502	0.176575	9.71252
4200906	-0.622592	0.192933	9.79226
4200916	-0.623399	0.212366	9.80602
4200926	-0.597896	0.202147	9.77919
4200936	-0.605326	0.196383	9.74079
4200946	-0.592845	0.192502	9.77497
4200956	-0.607715	0.183184	9.78386
4200966	-0.635075	0.201581	9.75796
4200976	-0.611703	0.197107	9.76898
4200986	-0.606122	0.191983	9.75515
4200996	-0.601881	0.211306	9.76443
4201006	-0.576122	0.203173	9.81856
4201016	-0.585146	0.18861	9.80887
4201026	-0.602938	0.192727	9.7839
4201036	-0.578773	0.202186	9.78032
4201046	-0.596576	0.225369	9.75486
4201056	-0.616755	0.21152	9.77308
4201066	-0.616219	0.201742	9.76383
4201076	-0.619409	0.2153	9.73471
4201086	-0.595507	0.215348	9.73612
4201096	-0.585938	0.196301	9.73717
4201106	-0.58355	0.192643	9.78028
4201116	-0.574265	0.216618	9.78498
4201126	-0.603743	0.207395	9.79777
4201136	-0.617547	0.197586	9.78768
4201146	-0.60773	0.221316	9.78289
4201156	-0.584088	0.207188	9.78941
4201166	-0.5862	0.18689	9.74216
4201176	-0.604277	0.212405	9.80714
4201186	-0.594454	0.221835	9.80272
4201196	-0.568937	0.199873	9.69044
4201206	-0.573192	0.21392	9.6803
4201216	-0.594185	0.233803	9.71191
4201226	-0.593646	0.219259	9.70278
4201236	-0.580097	0.205355	9.71822
4201246	-0.543715	0.206287	9.75369
4201256	-0.55381	0.211279	9.7625
4201266	-0.58568	0.193621	9.81824
4201276	-0.577175	0.175063	9.83827
4201286	-0.579032	0.183242	9.78555
4201296	-0.563102	0.201604	9.75743
4201306	-0.573198	0.211363	9.76612
4201316	-0.592061	0.225501	9.75989
4201326	-0.59471	0.198124	9.80807
4201336	-0.607705	0.159351	9.78446
4201346	-0.597342	0.171095	9.68473
4201356	-0.608512	0.200407	9.71191
4201366	-0.606132	0.215816	9.75454
4201376	-0.597635	0.216326	9.77408
4201386	-0.569474	0.192794	9.78587
4201396	-0.544776	0.197243	9.77292
4201406	-0.571866	0.205985	9.74251
4201416	-0.600553	0.215461	9.74058
4201426	-0.598442	0.235758	9.78784
4201436	-0.598967	0.216937	9.79781
4201446	-0.58436	0.22161	9.79379
4201456	-0.559934	0.240479	9.78522
4201466	-0.571877	0.229817	9.74191
4201476	-0.58992	0.195924	9.72265
4201486	-0.594691	0.172082	9.72297
4201496	-0.619935	0.201243	9.74457
4201506	-0.620999	0.201733	9.76355
4201516	-0.609308	0.196007	9.72627
4201526	-0.614622	0.201009	9.73536
4201536	-0.638531	0.193637	9.81989
4201546	-0.624722	0.193911	9.83023
4201556	-0.602662	0.168773	9.77976
4201566	-0.572919	0.177874	9.76222
4201576	-0.564438	0.216516	9.7808
4201586	-0.584886	0.202787	9.80376
4201596	-0.587018	0.213299	9.84149
4201606	-0.59498	0.20778	9.81257
4201616	-0.597616	0.16866	9.77529
4201626	-0.575324	0.202806	9.80433
4201636	-0.558333	0.230213	9.75699
4201646	-0.587814	0.230522	9.76954
4201656	-0.613581	0.231329	9.80135
4201666	-0.563366	0.196959	9.7623
4201676	-0.5854	0.181756	9.72804
4201686	-0.609572	0.191363	9.73114
4201696	-0.568406	0.182773	9.76713
4201706	-0.548753	0.182567	9.75876
4201716	-0.552474	0.196368	9.73914
4201726	-0.591513	0.187124	9.75136
4201736	-0.5846	0.155	9.80023
4201746	-0.572657	0.165662	9.84354
4201756	-0.555407	0.212012	9.79097
4201766	-0.57215	0.249005	9.74617
4201776	-0.607999	0.226205	9.78752
4201786	-0.587811	0.199365	9.85609
4201796	-0.588352	0.223443	9.86497
4201806	-0.628449	0.222012	9.81024
4201816	-0.646502	0.211951	9.79037
4201826	-0.627125	0.2357	9.78615
4201836	-0.623673	0.231554	9.81028
4201846	-0.645716	0.218561	9.86172
4201856	-0.643862	0.236772	9.82801
4201866	-0.578515	0.22113	9.77509
4201876	-0.563372	0.21126	9.76194
4201886	-0.606662	0.211295	9.76415
4201896	-0.609588	0.207872	9.81647
4201906	-0.598686	0.183449	9.79391
4201916	-0.586992	0.172956	9.75675
4201926	-0.588076	0.221111	9.77453
4201936	-0.587008	0.211089	9.75579
4201946	-0.601073	0.187105	9.7508
4201956	-0.616481	0.192331	9.76882
4201966	-0.606116	0.177684	9.75551
4201976	-0.602398	0.173417	9.77489
4201986	-0.574261	0.207085	9.78522
4201996	-0.568952	0.216383	9.77577
4202006	-0.564177	0.225926	9.77581
4202016	-0.562572	0.206127	9.74782
4202026	-0.559121	0.206748	9.77183
4202036	-0.576659	0.234574	9.74151
4202046	-0.610899	0.182441	9.75511
4202056	-0.565486	0.174106	9.80087
4202066	-0.564172	0.216393	9.77605
4202076	-0.573468	0.221018	9.77062
4202086	-0.563644	0.225682	9.76632
4202096	-0.592587	0.211447	9.76974
4202106	-0.601883	0.216072	9.76431
4202116	-0.601624	0.230248	9.7592
4202126	-0.612782	0.230962	9.78711
4202136	-0.594716	0.212424	9.8077
4202146	-0.586478	0.193988	9.83248
4202156	-0.600818	0.189193	9.83176
4202166	-0.584347	0.188244	9.79464
4202176	-0.577971	0.192286	9.76632
4202186	-0.578232	0.178109	9.77143
4202196	-0.588859	0.183345	9.78973
4202206	-0.595239	0.188835	9.8178
4202216	-0.565234	0.212116	9.79516
4202226	-0.597378	0.23527	9.76885
4202236	-0.61517	0.217763	9.83019
4202246	-0.573208	0.213572	9.85182
4202256	-0.560715	0.197948	9.80055
4202266	-0.567892	0.225427	9.75655
4202276	-0.534439	0.249327	9.75791
4202286	-0.52858	0.215483	9.74006
4202296	-0.572141	0.225173	9.74678
4202306	-0.577185	0.220519	9.75136
4202316	-0.576383	0.21062	9.73737
4202326	-0.560445	0.209916	9.70974
4202336	-0.562294	0.177405	9.7438
4202346	-0.577968	0.182754	9.76657
4202356	-0.577713	0.21123	9.76109
4202366	-0.569478	0.202327	9.78563
4202376	-0.556717	0.181814	9.72973
4202386	-0.570526	0.18154	9.71939
4202396	-0.559653	0.206992	9.78132
4202406	-0.567624	0.198915	9.83823
4202416	-0.633494	0.217358	9.81482
4202426	-0.626586	0.221156	9.77702
4202436	-0.570545	0.207583	9.80449
4202446	-0.582764	0.220877	9.76532
4202456	-0.585418	0.224655	9.72695
4202466	-0.589136	0.212068	9.79375
4202476	-0.6141	0.202973	9.81157
4202486	-0.585418	0.203032	9.81326
4202496	-0.556206	0.212379	9.80521
4202506	-0.558325	0.211147	9.75747
4202516	-0.573187	0.182763	9.76685
4202526	-0.604005	0.197983	9.80276
4202536	-0.603748	0.221694	9.79741
4202546	-0.58329	0.206821	9.77517
4202556	-0.543172	0.177444	9.74493
4202566	-0.535738	0.173674	9.78358
4202576	-0.579568	0.19302	9.7948
4202586	-0.592583	0.201913	9.76998
4202596	-0.579835	0.193142	9.79954
4202606	-0.569202	0.178372	9.78149
4202616	-0.56443	0.197449	9.78128
4202626	-0.565228	0.197816	9.79552
4202636	-0.546892	0.186478	9.72542
4202646	-0.539462	0.213865	9.67752
4202656	-0.559647	0.209549	9.6955
4202666	-0.543966	0.168277	9.75941
4202676	-0.544765	0.168644	9.77364
4202686	-0.562034	0.191583	9.7387
4202696	-0.566538	0.167618	9.73427
4202706	-0.595752	0.163038	9.7422
4202716	-0.606118	0.18245	9.75539
4202726	-0.628446	0.212479	9.81048
4202736	-0.623935	0.222143	9.81527
4202746	-0.590471	0.222211	9.81723
4202756	-0.593667	0.250067	9.78775
4202766	-0.618629	0.257832	9.71939
4202776	-0.625512	0.196834	9.75864
4202786	-0.601343	0.19676	9.75531
4202796	-0.614892	0.210665	9.73986
4202806	-0.631636	0.226035	9.78136
4202816	-0.608278	0.259694	9.79141
4202826	-0.598977	0.240769	9.79721
4202836	-0.602161	0.244793	9.76833
4202846	-0.615705	0.244396	9.75325
4202856	-0.595781	0.234536	9.74038
4202866	-0.578247	0.216242	9.77046
4202876	-0.594971	0.183947	9.81318
4202886	-0.607192	0.206773	9.77376
4202896	-0.622864	0.224212	9.71046
4202906	-0.604788	0.18184	9.73166
4202916	-0.577437	0.187275	9.75695
4202926	-0.605048	0.167663	9.73677
4202936	-0.622054	0.178389	9.78314
4202946	-0.604012	0.21705	9.80228
4202956	-0.589136	0.212068	9.79375
4202966	-0.600543	0.191628	9.74119
4202976	-0.618067	0.186089	9.71171
4202986	-0.612237	0.202118	9.77835
4202996	-0.596556	0.177704	9.75607
4203006	-0.589646	0.176736	9.71839
4203016	-0.607715	0.183184	9.78386
4203026	-0.601357	0.208504	9.84076
4203036	-0.575078	0.25035	9.79837
4203046	-0.597119	0.254214	9.76362
4203056	-0.586218	0.229789	9.74107
4203066	-0.534411	0.182595	9.75961
4203076	-0.517397	0.109556	9.88633
4203086	-0.566513	0.105652	9.73585
4203096	-0.60638	0.216287	9.58776
4203106	-0.580917	0.258154	9.73113
4203116	-0.586224	0.222466	9.82701
4203126	-0.580907	0.212697	9.81804
4203136	-0.591531	0.230023	9.75027
4203146	-0.654494	0.27793	9.75964
4203156	-0.67043	0.273869	9.78739
4203166	-0.641736	0.245327	9.78981
4203176	-0.588088	0.24971	9.7738
4203186	-0.606689	0.278027	9.76246
4203196	-0.665383	0.273755	9.78293
4203206	-0.632175	0.245346	9.79037
4203216	-0.593407	0.264245	9.78265
4203226	-0.618627	0.253065	9.71951
4203236	-0.619423	0.248665	9.73387
4203246	-0.560733	0.240847	9.79946
4203256	-0.573198	0.211363	9.76612
4203266	-0.647034	0.229052	9.71368
4203276	-0.635097	0.254014	9.75663
4203286	-0.590482	0.246043	9.81663
4203296	-0.559659	0.221292	9.78096
4203306	-0.558327	0.215914	9.75735
4203316	-0.594182	0.207414	9.79834
4203326	-0.597624	0.187726	9.77481
4203336	-0.587	0.192022	9.75627
4203346	-0.558057	0.206259	9.75285
4203356	-0.54823	0.206156	9.74867
4203366	-0.573205	0.225662	9.76576
4203376	-0.59154	0.253857	9.74967
4203386	-0.57187	0.215518	9.74227
4203396	-0.578511	0.211597	9.77533
4203406	-0.609596	0.226938	9.81599
4203416	-0.608782	0.188439	9.80272
4203426	-0.600825	0.20826	9.83127
4203436	-0.566576	0.236559	9.81828
4203446	-0.564977	0.231059	9.78993
4203456	-0.595259	0.236501	9.81659
4203466	-0.567372	0.23216	9.83264
4203476	-0.564178	0.230693	9.77569
4203486	-0.586207	0.205956	9.74167
4203496	-0.560185	0.207236	9.79081
4203506	-0.5647	0.207105	9.78579
4203516	-0.581422	0.191666	9.74232
4203526	-0.562305	0.206005	9.74308
4203536	-0.554331	0.182924	9.77272
4203546	-0.587004	0.201555	9.75603
4203556	-0.596041	0.220359	9.74549
4203566	-0.571062	0.191318	9.72864
4203576	-0.560173	0.195494	9.70536
4203586	-0.560441	0.200382	9.70998
4203596	-0.563375	0.220793	9.7617
4203606	-0.58196	0.20621	9.75144
4203616	-0.595223	0.172327	9.73246
4203626	-0.598156	0.18797	9.7843
4203636	-0.586736	0.196667	9.7514
4203646	-0.542657	0.220098	9.73435
4203656	-0.545575	0.219234	9.70085
4203666	-0.558569	0.175694	9.67737
4203676	-0.555379	0.162138	9.70648
4203686	-0.600275	0.186739	9.73657
4203696	-0.610648	0.220451	9.74939
4203706	-0.572666	0.211118	9.75663
4203716	-0.580641	0.212575	9.81329
4203726	-0.594712	0.20289	9.80795
4203736	-0.600533	0.167795	9.74179
4203746	-0.605052	0.177196	9.73653
4203756	-0.601607	0.192116	9.76017
4203766	-0.574531	0.21674	9.78973
4203776	-0.550091	0.202244	9.78201
4203786	-0.524588	0.192026	9.75518
4203796	-0.537341	0.188706	9.81169
4203806	-0.572666	0.189494	9.84294
4203816	-0.602686	0.225971	9.77831
4203825	-0.630831	0.21137	9.76749
4203835	-0.622598	0.207233	9.7919
4203845	-0.612505	0.207007	9.78297
4203855	-0.629236	0.215403	9.7389
4203865	-0.652072	0.210098	9.71863
4203875	-0.60639	0.196872	9.75977
4203885	-0.581948	0.17761	9.75217
4203895	-0.592313	0.192258	9.76548
4203905	-0.607999	0.226205	9.78752
4203915	-0.63588	0.221015	9.77171
4203925	-0.630302	0.220657	9.75776
4203935	-0.62606	0.235211	9.76717
4203945	-0.616226	0.220809	9.76335
4203955	-0.578507	0.202064	9.77557
4203965	-0.544514	0.206655	9.76793
4203975	-0.557791	0.206137	9.7481
4203985	-0.56841	0.192306	9.76689
4203995	-0.559364	0.149671	9.77803
4204005	-0.569719	0.140484	9.79195
4204015	-0.574249	0.178485	9.78595
4204025	-0.593107	0.183091	9.77996
4204035	-0.611165	0.182563	9.75985
4204045	-0.618344	0.21481	9.71573
4204055	-0.608253	0.219352	9.70668
4204065	-0.590724	0.210591	9.73652
4204075	-0.606664	0.216062	9.76403
4204085	-0.632967	0.226646	9.80509
4204095	-0.617295	0.23083	9.78209
4204105	-0.58249	0.201687	9.76105
4204115	-0.569997	0.169207	9.79596
4204125	-0.576641	0.170053	9.8289
4204135	-0.581422	0.170043	9.82862
4204145	-0.568934	0.173484	9.77686
4204155	-0.570788	0.17213	9.72438
4204165	-0.574245	0.168952	9.78619
4204175	-0.5724	0.189372	9.83819
4204185	-0.591266	0.213045	9.83171
4204195	-0.598424	0.192859	9.78893
4204205	-0.572407	0.225295	9.75152
4204215	-0.564711	0.230937	9.78518
4204225	-0.588068	0.202044	9.77501
4204235	-0.602413	0.21155	9.77392
4204245	-0.617017	0.202108	9.77807
4204255	-0.612761	0.183296	9.78832
4204265	-0.569468	0.178494	9.78623
4204275	-0.576637	0.182142	9.74284
4204285	-0.607449	0.183062	9.77911
4204295	-0.58462	0.202665	9.79902
4204305	-0.574533	0.221506	9.78961
4204315	-0.581694	0.206088	9.7467
4204325	-0.574503	0.166865	9.70524
4204335	-0.574246	0.190576	9.69989
4204345	-0.575857	0.224674	9.72751
4204355	-0.583562	0.221243	9.77955
4204365	-0.5987	0.216815	9.79307
4204375	-0.597637	0.221092	9.77396
4204385	-0.572936	0.220773	9.76113
4204395	-0.569742	0.197682	9.79049
4204405	-0.590982	0.191647	9.74175
4204415	-0.570534	0.200606	9.71891
4204425	-0.569216	0.211739	9.78064
4204435	-0.597095	0.197015	9.76508
4204445	-0.572124	0.18704	9.74774
4204455	-0.575056	0.197918	9.7997
4204465	-0.567892	0.203804	9.84285
4204475	-0.551686	0.198211	9.8106
4204485	-0.583556	0.206944	9.77992
4204495	-0.582767	0.225643	9.76519
4204505	-0.589928	0.214991	9.72217
4204515	-0.591516	0.196657	9.75112
4204525	-0.576911	0.20133	9.7471
4204535	-0.5708	0.200728	9.72365
4204545	-0.582486	0.192154	9.7613
4204555	-0.58329	0.206821	9.77517
4204565	-0.563368	0.201726	9.76218
4204575	-0.564951	0.190717	9.7052
4204585	-0.558309	0.189872	9.67226
4204595	-0.571872	0.220284	9.74215
4204605	-0.575603	0.231528	9.80835
4204615	-0.549028	0.206522	9.7629
4204625	-0.562572	0.206127	9.74782
4204635	-0.565501	0.212238	9.7999
4204645	-0.546641	0.202865	9.80601
4204655	-0.563898	0.197205	9.77179
4204665	-0.580627	0.179209	9.81414
4204675	-0.587008	0.189466	9.84209
4204685	-0.605079	0.222304	9.82114
4204695	-0.584625	0.216966	9.79866
4204705	-0.573727	0.202073	9.77585
4204715	-0.583288	0.202054	9.77529
4204725	-0.586479	0.220378	9.74605
4204735	-0.577205	0.268185	9.75015
4204745	-0.560215	0.278734	9.789
4204755	-0.56365	0.239982	9.76596
4204765	-0.576653	0.220275	9.74187
4204775	-0.551676	0.196001	9.7249
4204785	-0.562034	0.191583	9.7387
4204795	-0.607999	0.226205	9.78752
4204805	-0.592052	0.206435	9.76037
4204815	-0.577706	0.213788	9.67527
4204825	-0.573468	0.237874	9.68444
4204835	-0.601345	0.201527	9.75518
4204845	-0.592835	0.16867	9.77558
4204855	-0.543968	0.173043	9.75928
4204865	-0.547692	0.191611	9.73954
4204875	-0.575575	0.186419	9.72374
4204885	-0.618857	0.167389	9.72643
4204895	-0.617005	0.17351	9.77879
4204905	-0.579568	0.19302	9.7948
4204915	-0.587	0.192022	9.75627
4204925	-0.585392	0.16269	9.72852
4204935	-0.571317	0.162842	9.73411
4204945	-0.572923	0.187407	9.76198
4204955	-0.569208	0.192672	9.78112
4204965	-0.576383	0.188995	9.82367
4204975	-0.582224	0.179942	9.84261
4204985	-0.597894	0.197381	9.77931
4204995	-0.611981	0.225829	9.773
4205005	-0.617827	0.231075	9.79158
4205015	-0.600821	0.220349	9.74521
4205025	-0.616495	0.225698	9.76797
4205035	-0.603751	0.22646	9.79729
4205045	-0.577711	0.206464	9.76122
4205055	-0.624182	0.196223	9.73492
4205065	-0.639057	0.201205	9.74344
4205075	-0.605322	0.186851	9.74103
4205085	-0.580894	0.200954	9.73258
4205095	-0.585673	0.200945	9.7323
4205105	-0.58248	0.177855	9.76166
4205115	-0.589397	0.197889	9.79886
4205125	-0.572673	0.225417	9.75627
4205135	-0.562304	0.201238	9.7432
4205145	-0.589123	0.178701	9.7946
4205155	-0.588334	0.202167	9.77976
4205165	-0.57133	0.196207	9.73327
4205175	-0.545033	0.195155	9.69196
4205185	-0.549021	0.20908	9.67708
4205195	-0.561513	0.219937	9.72848
4205205	-0.581433	0.220265	9.74159
4205215	-0.592588	0.216213	9.76962
4205225	-0.574799	0.221629	9.79435
4205235	-0.563106	0.211138	9.75719
4205245	-0.587277	0.220744	9.76029
4205255	-0.586748	0.225266	9.75068
4205265	-0.588863	0.214502	9.70318
4205275	-0.598954	0.209961	9.71223
4205285	-0.566823	0.215405	9.73781
4205295	-0.558059	0.211025	9.75273
4205305	-0.595769	0.205937	9.74111
4205315	-0.577173	0.191919	9.75209
4205325	-0.545034	0.178299	9.77815
4205335	-0.583022	0.201932	9.77055
4205345	-0.590445	0.236114	9.81634
4205355	-0.594154	0.221314	9.79744
4205365	-0.596013	0.212637	9.8309
4205375	-0.5931	0.223035	9.86416
4205385	-0.595763	0.250648	9.82519
4205395	-0.57663	0.222086	9.82704
4205405	-0.580604	0.202643	9.81301
4205415	-0.593354	0.216182	9.78333
4205425	-0.588831	0.19248	9.78896
4205435	-0.571315	0.217085	9.81795
4205445	-0.557509	0.226892	9.82804
4205455	-0.547142	0.207478	9.81485
4205465	-0.55697	0.207582	9.81904
4205475	-0.580071	0.202399	9.80351
4205485	-0.591221	0.20567	9.7456
4205495	-0.580856	0.191023	9.73229
4205505	-0.571026	0.181387	9.72835
4205515	-0.584841	0.195415	9.71765
4205525	-0.594667	0.195518	9.72184
4205535	-0.586451	0.229512	9.74528
4205545	-0.567598	0.239207	9.75091
4205555	-0.577675	0.196533	9.76093
4205565	-0.594934	0.174015	9.81289
4205575	-0.586962	0.155701	9.84241
4205585	-0.572883	0.146319	9.84824
4205595	-0.565192	0.187884	9.79523
4205605	-0.563868	0.201573	9.77114
4205615	-0.574752	0.183098	9.79479
4205625	-0.572895	0.196543	9.76121
4205635	-0.574224	0.192387	9.78506
4205645	-0.569707	0.187752	9.7902
4205655	-0.566781	0.191174	9.73788
4205665	-0.580068	0.21449	9.71745
4205675	-0.589378	0.252481	9.71117
4205685	-0.588298	0.21386	9.69316
4205695	-0.556682	0.17665	9.72932
4205705	-0.554569	0.192181	9.77669
4205715	-0.595201	0.200528	9.73121
4205725	-0.578462	0.189923	9.68958
4205735	-0.542614	0.195868	9.73442
4205745	-0.560672	0.19534	9.71432
4205755	-0.557203	0.169919	9.65323
4205765	-0.560664	0.176273	9.7148
4205775	-0.571292	0.181509	9.7331
4205785	-0.563061	0.18214	9.75739
4205795	-0.57315	0.168065	9.76668
4205805	-0.532782	0.181464	9.7306
4205815	-0.475157	0.200525	9.72875
4205825	-0.498258	0.190576	9.71335
4205835	-0.569165	0.185298	9.69501
4205845	-0.565713	0.181152	9.71914
4205855	-0.558286	0.19645	9.75731
4205865	-0.558291	0.21075	9.75694
4205875	-0.554041	0.20147	9.76696
4205885	-0.589631	0.197614	9.80307
4205895	-0.571035	0.20522	9.72775
4205905	-0.559879	0.209273	9.69972
4205915	-0.577406	0.191644	9.7563
4205925	-0.59362	0.216304	9.78807
4205935	-0.588323	0.249434	9.77801
4205945	-0.564679	0.235307	9.78453
4205955	-0.577682	0.215599	9.76044
4205965	-0.54927	0.225312	9.76663
4205975	-0.527492	0.216805	9.80624
4205985	-0.539437	0.21091	9.76281
4205995	-0.57769	0.234666	9.75996
4206005	-0.58193	0.215345	9.75067
4206015	-0.555103	0.197193	9.78606
4206025	-0.56573	0.202429	9.80436
4206035	-0.545015	0.211267	9.77677
4206045	-0.527227	0.22145	9.80138
4206055	-0.571315	0.217085	9.81795
4206065	-0.581145	0.226721	9.82189
4206075	-0.546089	0.235589	9.79515
4206085	-0.571053	0.226495	9.81296
4206095	-0.564673	0.221006	9.78489
4206105	-0.548201	0.21529	9.74789
4206115	-0.601587	0.220318	9.75891
4206125	-0.595213	0.207504	9.81679
4206135	-0.60823	0.199541	9.87816
4206145	-0.637698	0.188106	9.80525
4206155	-0.623632	0.21209	9.81023
4206165	-0.641171	0.223061	9.86609
4206175	-0.644081	0.20313	9.83308
4206185	-0.62548	0.196437	9.75811
4206195	-0.604212	0.152597	9.72236
4206205	-0.591194	0.138938	9.7473
4206215	-0.593869	0.173527	9.79391
4206225	-0.583254	0.19689	9.77488
4206235	-0.590421	0.200538	9.73149
4206245	-0.617506	0.19498	9.70145
4206255	-0.609018	0.21932	9.72039
4206265	-0.574511	0.244942	9.78847
4206275	-0.564939	0.221128	9.78964
4206285	-0.564128	0.187395	9.77625
4206295	-0.556699	0.219549	9.72823
4206305	-0.575025	0.223909	9.71274
4206315	-0.609809	0.200621	9.73511
4206325	-0.611395	0.172754	9.76431
4206335	-0.592277	0.182326	9.76519
4206345	-0.583516	0.209103	9.69356
4206355	-0.604501	0.209919	9.72566
4206365	-0.602904	0.187563	9.78349
4206375	-0.589884	0.16437	9.80867
4206385	-0.607411	0.168364	9.77895
4206395	-0.593328	0.149449	9.78502
4206405	-0.571298	0.174186	9.81904
4206415	-0.593349	0.201882	9.78369
4206425	-0.631049	0.17296	9.77267
4206435	-0.639814	0.177341	9.75775
4206445	-0.615908	0.167856	9.7594
4206455	-0.612178	0.134988	9.77951
4206465	-0.645387	0.163398	9.77207
4206475	-0.65549	0.187456	9.7804
4206485	-0.656282	0.173523	9.795
4206495	-0.66955	0.149172	9.77577
4206505	-0.666107	0.168859	9.7993
4206515	-0.655769	0.220944	9.78429
4206525	-0.65391	0.229622	9.75083
4206535	-0.646734	0.206908	9.79471
4206545	-0.685499	0.178475	9.80268
4206555	-0.881207	0.111225	9.78809
4206565	-0.823308	0.111097	9.78198
4206575	-0.599448	0.195508	9.72156
4206585	-0.574221	0.209244	9.69887
4206595	-0.589626	0.209704	9.71701
4206605	-0.607952	0.214065	9.70153
4206615	-0.631317	0.199473	9.69099
4206625	-0.67382	0.206118	9.76455
4206635	-0.661342	0.207002	9.79861
4206645	-0.597333	0.206272	9.76905
4206655	-0.589897	0.197736	9.80782
4206665	-0.585118	0.202512	9.80798
4206675	-0.615648	0.1868	9.75417
4206685	-0.626008	0.187147	9.76785
4206695	-0.535993	0.22583	9.78646
4206705	-0.564404	0.21135	9.78039
4206715	-0.535721	0.211408	9.78208
4206725	-0.462953	0.220597	9.76707
4206735	-0.502533	0.235432	9.78819
4206745	-0.494305	0.240829	9.81235
4206755	-0.507042	0.220999	9.78352
4206765	-0.583005	0.239667	9.76905
4206775	-0.558045	0.258293	9.75099
4206785	-0.125409	0.262828	9.73347
4206795	-0.21675	0.215224	9.73883
4206805	-0.616204	0.244244	9.76221
4206815	-0.603193	0.244884	9.78678
4206825	-0.650975	0.187588	9.78542
4206835	-0.588582	0.235258	9.78312
4206845	-0.52776	0.243319	9.72456
4206855	-0.519002	0.253237	9.73912
4206865	-0.485007	0.236203	9.81778
4206875	-0.469594	0.216677	9.80013
4206885	-0.481013	0.229603	9.74672
4206895	-0.491642	0.23484	9.76502
4206905	-0.536519	0.211775	9.79631
4206915	-0.561751	0.212338	9.81863
4206925	-0.583797	0.225734	9.78365
4206935	-0.58911	0.225968	9.79286
4206945	-0.580355	0.24542	9.80717
4206955	-0.584071	0.244923	9.78791
4206965	-0.599733	0.221671	9.8114
4206975	-0.591499	0.212769	9.83593
4206985	-0.571585	0.22674	9.82245
4206995	-0.551672	0.245479	9.80886
4207005	-0.53201	0.226207	9.80098
4207015	-0.54157	0.22142	9.80054
4207025	-0.537846	0.202853	9.82028
4207035	-0.544998	0.168367	9.77786
4207045	-0.571562	0.191164	9.7376
4207055	-0.55802	0.196328	9.75256
4207065	-0.513675	0.198012	9.81706
4207075	-0.515011	0.212923	9.84043
4207085	-0.514195	0.169658	9.82728
4207095	-0.465843	0.131376	9.82157
4207105	-0.43955	0.139858	9.78003
4207115	-0.483377	0.149672	9.79149
4207125	-0.452019	0.0935183	9.83288
4207134	-0.284396	-0.00159836	9.8404
4207144	-0.27192	0.0256758	9.78803
4207154	-0.51604	0.166095	9.6891
4207164	-0.615391	0.227367	9.66264
4207174	-0.407424	0.181227	9.71893
4207184	-0.260565	0.196438	9.75102
4207194	-0.390163	0.177354	9.7534
4207204	-0.510211	0.186891	9.75562
4207214	-0.476483	0.191602	9.75272
4207224	-0.387746	0.0974321	9.79845
4207234	-0.464787	0.171577	9.7158
4207244	-0.686848	0.265233	9.6527
4207254	-0.63636	0.168429	9.782
4207264	-0.519487	0.117459	9.83782
4207274	-0.55933	0.144506	9.77762
4207284	-0.641663	0.166453	9.70551
4207294	-0.80556	0.243002	9.71774
4207304	-0.820713	0.250316	9.81671
4207314	-0.670109	0.216149	9.78357
4207324	-0.517378	0.164148	9.79865
4207334	-0.560124	0.13534	9.7921
4207344	-0.785624	0.199776	9.70572
4207354	-0.795726	0.223832	9.71404
4207364	-0.621472	0.156471	9.6879
4207374	-0.552417	0.134005	9.74018
4207384	-0.587491	0.168036	9.76584
4207394	-0.67992	0.17812	9.78872
4207404	-0.684688	0.144743	9.78929
4207414	-0.692657	0.179914	9.67358
4207424	-0.723748	0.214322	9.71376
4207434	-0.666117	0.192692	9.79869
4207444	-0.711007	0.224618	9.74283
4207454	-0.782727	0.253073	9.73789
4207464	-0.779814	0.263471	9.77114
4207474	-0.750067	0.26304	9.75385
4207484	-0.683924	0.230174	9.77287
4207494	-0.637694	0.178573	9.80549
4207504	-0.591727	0.117558	9.84309
4207514	-0.555856	0.0831614	9.8032
4207524	-0.579503	0.133213	9.71002
4207534	-0.623888	0.210003	9.72928
4207544	-0.631076	0.239693	9.77098
4207554	-0.602365	0.168252	9.77448
4207564	-0.568608	0.101464	9.7734
4207574	-0.581354	0.105469	9.74396
4207584	-0.653075	0.13869	9.7389
4207594	-0.65016	0.144321	9.77227
4207604	-0.60739	0.115931	9.78028
4207614	-0.615633	0.148667	9.75514
4207624	-0.642218	0.223897	9.71355
4207634	-0.592298	0.234759	9.76386
4207644	-0.551657	0.207346	9.80983
4207654	-0.564386	0.168451	9.78148
4207664	-0.561998	0.164795	9.82459
4207674	-0.568652	0.211096	9.77062
4207684	-0.579013	0.237834	9.69786
4207694	-0.58512	0.228902	9.72155
4207704	-0.575043	0.266809	9.71165
4207714	-0.593629	0.256993	9.70128
4207724	-0.763234	-0.00440788	9.74081
4207734	-0.747502	-0.174376	9.80798
4207744	-0.540437	0.0324774	9.8721
4207754	-0.42897	0.232162	9.84501
4207764	-0.337123	0.36788	9.74216
4207774	-0.554147	0.485255	9.67399
4207784	-0.666235	0.505078	9.705
4207794	-0.557574	0.410579	9.73762
4207804	-0.535241	0.339861	9.76932
4207814	-0.512408	0.354699	9.78934
4207824	-0.554091	0.325401	9.76381
4207834	-0.577179	0.286854	9.74913
4207844	-0.558047	0.26306	9.75086
4207854	-0.556724	0.255124	9.81308
4207864	-0.550604	0.235457	9.79012
4207874	-0.538656	0.253442	9.74749
4207884	-0.546632	0.259665	9.80403
4207894	-0.576112	0.255208	9.8167
4207904	-0.599491	0.278749	9.8052
4207914	-0.597364	0.282537	9.76711
4207924	-0.56814	0.258517	9.75991
4207934	-0.599751	0.26457	9.81031
4207944	-0.620462	0.267822	9.75183
4207954	-0.597629	0.277893	9.77198
4207964	-0.580363	0.264486	9.80669
4207974	-0.569196	0.23994	9.77938
4207984	-0.584069	0.240156	9.78803
4207994	-0.553512	0.210759	9.75722
4208004	-0.562804	0.205852	9.75204
4208014	-0.601056	0.22484	9.7493
4208024	-0.553786	0.229947	9.76149
4208034	-0.534401	0.239397	9.75762
4208044	-0.576893	0.239065	9.7456
4208054	-0.571836	0.210353	9.74186
4208064	-0.563609	0.220517	9.76591
4208074	-0.58434	0.249811	9.79253
4208084	-0.567873	0.258395	9.75517
4208094	-0.546874	0.224213	9.72392
4208104	-0.581647	0.172323	9.74701
4208114	-0.616174	0.167978	9.76415
4208124	-0.606881	0.172886	9.76933
4208134	-0.583786	0.197135	9.78437
4208144	-0.568124	0.220385	9.76088
4208154	-0.572632	0.205954	9.75622
4208164	-0.58777	0.201525	9.76973
4208174	-0.59442	0.221437	9.80219
4208184	-0.584322	0.206912	9.79362
4208194	-0.581653	0.186623	9.74665
4208204	-0.590943	0.176949	9.74158
4208214	-0.58032	0.181246	9.72304
4208224	-0.566785	0.200707	9.73764
4208234	-0.573161	0.196665	9.76595
4208244	-0.611136	0.191698	9.75908
4208254	-0.590672	0.162527	9.7372
4208264	-0.551638	0.181304	9.72473
4208274	-0.550319	0.209292	9.70028
4208284	-0.597572	0.161286	9.68919
4208294	-0.601018	0.129509	9.75172
4208304	-0.566779	0.164785	9.82431
4208314	-0.600526	0.207739	9.826
4208324	-0.601848	0.206141	9.76402
4208334	-0.57262	0.177354	9.75695
4208344	-0.570501	0.178585	9.80468
4208354	-0.573967	0.216097	9.77971
4208364	-0.351204	0.382028	9.73621
4208374	-0.497223	0.261586	9.69255
4208384	-0.712536	0.0753775	9.68936
4208394	-0.569948	0.147532	9.71022
4208404	-0.565449	0.185796	9.71428
4208414	-0.575817	0.209977	9.72734
4208424	-0.590137	0.157516	9.72783
4208434	-0.581105	0.148246	9.73813
4208444	-0.577654	0.1441	9.76226
4208454	-0.580579	0.140677	9.81458
4208464	-0.564922	0.178229	9.79073
4208474	-0.541546	0.185844	9.71568
4208484	-0.551372	0.181182	9.71999
4208494	-0.575534	0.166956	9.72369
4208504	-0.610852	0.148677	9.75542
4208514	-0.632627	0.126028	9.80236
4208524	-0.609262	0.140619	9.81289
4208534	-0.618848	0.202566	9.81075
4208544	-0.581668	0.224755	9.74568
4208554	-0.531744	0.226085	9.79623
4208564	-0.54264	0.23621	9.81915
4208574	-0.519244	0.19616	9.74532
4208584	-0.525882	0.182706	9.77862
4208594	-0.543155	0.193554	9.82973
4208604	-0.53597	0.168632	9.78791
4208614	-0.535694	0.144675	9.78377
4208624	-0.528252	0.121841	9.8229
4208634	-0.508608	0.145467	9.81393
4208644	-0.516047	0.163537	9.77492
4208654	-0.48761	0.111284	9.78269
4208664	-0.466358	0.0887222	9.83215
4208674	-0.482019	0.0654716	9.85564
4208684	-0.484664	0.0454178	9.81788
4208694	-0.468464	0.0541239	9.78526
4208704	-0.473775	0.049593	9.7946
4208714	-0.522104	0.030674	9.80176
4208724	-0.526369	0.0733194	9.7909
4208734	-0.500628	0.129711	9.75763
4208744	-0.514956	0.0963163	9.75763
4208754	-0.522394	0.0879955	9.80505
4208764	-0.483877	0.0736504	9.80292
4208774	-0.47166	0.0819807	9.75578
4208784	-0.503008	0.0926781	9.80131
4208794	-0.52638	0.0971527	9.79029
4208804	-0.573697	0.206442	9.7752
4208814	-0.630307	0.310825	9.75492
4208824	-0.614092	0.242918	9.89577
4208834	-0.700806	-0.16751	10.2584
4208844	-0.804544	-0.274365	9.63088
4208854	-0.618952	-0.0727301	9.30796
4208864	-0.498105	-0.22923	9.89552
4208874	-0.503322	-0.462559	9.91067
4208884	-0.49723	-0.398638	9.79983
4208894	-0.542522	-0.0545521	9.82654
4208904	-0.532032	0.27864	9.79964
4208914	-0.500465	0.386983	9.74635
4208924	-0.49432	0.300584	9.72508
4208934	-0.495626	0.260853	9.66408
4208944	-0.522167	0.209595	9.71146
4208954	-0.55003	0.130347	9.78329
4208964	-0.576336	0.176855	9.73768
4208974	-0.588371	0.39499	9.68856
4208984	-0.582559	0.449152	9.75423
4208994	-0.58112	0.164756	9.82347
4209004	-0.568862	0.0729866	9.77887
4209014	-0.572863	0.11551	9.76327
4209024	-0.576834	0.091301	9.74935
4209034	-0.56677	0.162575	9.73861
4209044	-0.545043	0.277999	9.77507
4209054	-0.544788	0.306476	9.7696
4209064	-0.54079	0.263953	9.78521
4209074	-0.517405	0.23088	9.79695
4209084	-0.502215	0.10661	9.78671
4209094	-0.540403	-0.0316973	9.78797
4209104	-0.634966	0.0105209	9.76227
4209114	-0.826961	-0.0466986	9.76671
4209124	-0.86512	-0.256505	9.76979
4209134	-0.701277	-0.216446	9.84036
4209144	-0.668176	0.0436974	9.75471
4209154	-0.648089	0.307966	9.64437
4209164	-0.557064	0.462767	9.7268
4209174	-0.515888	0.425576	9.76352
4209184	-0.544747	0.206378	9.77214
4209194	-0.533272	0.0768433	9.74276
4209204	-0.495623	0.234463	9.7505
4209214	-0.477343	0.339733	9.7632
4209224	-0.459517	0.276208	9.70393
4209234	-0.462415	0.227676	9.67164
4209244	-0.466377	0.158011	9.74464
4209254	-0.496613	0.0490551	9.77421
4209264	-0.52422	0.0246754	9.75414
4209274	-0.499807	0.0552883	9.83103
4209284	-0.489715	0.0550632	9.8221
4209294	-0.495013	0.0435553	9.74586
4209304	-0.847512	0.136867	10.0419
4209314	-1.06638	-0.380597	9.77061
4209324	-0.765719	-1.02974	9.56182
4209334	-0.778218	-1.10793	10.0443
4209344	-0.919821	-0.920276	9.74053
4209354	-0.811427	-0.296882	9.49765
4209364	-0.697761	0.296634	9.76084
4209374	-0.628478	0.374144	9.80583
4209384	-0.594868	0.0335751	9.7307
4209394	-0.54041	0.00899315	9.70118
4209404	-0.426373	0.409862	9.70725
4209414	-0.390936	0.790278	9.66157
4209424	-0.38883	0.824876	9.70846
4209434	-0.403891	0.629785	9.72681
4209444	-0.383975	0.660613	9.62716
4209454	-0.365071	0.503128	9.80854
4209464	-0.404993	0.029458	9.93732
4209474	-0.461802	0.0103788	9.75342
4209484	-0.437832	0.496496	9.73773
4209494	-0.298181	0.593829	9.81018
4209504	-0.28318	0.300642	9.72322
4209514	-0.346809	0.041646	9.66888
4209524	-0.36823	-0.217246	9.80282
4209534	-0.307872	-0.419019	9.9306
4209544	-0.338968	-0.33183	9.79792
4209554	-0.422433	-0.142563	9.74056
4209564	-0.355572	-0.00198841	9.82669
4209574	-0.291708	0.354776	9.78804
4209584	-0.400731	0.692492	9.75399
4209594	-0.498436	0.607478	9.78851
4209604	-0.489555	0.338727	9.72439
4209614	-0.469392	0.395475	9.70508
4209624	-0.436035	0.636082	9.7867
4209634	-0.301857	0.493233	9.79346
4209644	-0.17179	0.0117016	9.79905
4209654	-0.179918	-0.263181	9.86748
4209664	-0.31965	-0.160317	9.78994
4209674	-0.412399	0.00497627	9.72788
4209684	-0.335136	0.0403395	9.80299
4209694	-0.293986	0.0698814	9.83802
4209704	-0.338359	0.134929	9.77182
4209714	-0.421587	0.395572	9.7079
4209724	-0.476048	0.429688	9.73717
4209734	-0.420473	0.249528	9.77837
4209744	-0.423646	0.224952	9.75022
4209754	-0.414335	0.186961	9.7565
4209764	-0.309943	0.135108	9.77825
4209774	-0.213235	0.0321569	9.85326
4209784	-0.329816	-0.000585556	9.88058
4209794	-0.669331	0.263448	9.76812
4209804	-0.763202	0.572227	9.72141
4209814	-0.612655	0.676291	9.68475
4209824	-0.574365	0.540347	9.77622
4209834	-0.506004	0.248762	9.93533
4209844	-0.342814	-0.0514479	9.94304
4209854	-0.00564575	-0.395066	9.92873
4209864	0.0879173	-0.555612	9.80492
4209874	-0.158306	-0.454557	9.65922
4209884	-0.411242	-0.207453	9.62852
4209894	-0.61223	0.28531	9.68994
4209904	-0.601198	0.53432	9.91295
4209914	-0.672853	0.422334	9.82582
4209924	-0.845445	0.370146	9.65499
4209934	-0.685758	0.181155	9.7216
4209944	-0.320924	-0.297936	9.81718
4209954	-0.328252	-0.577953	9.8715
4209964	-0.630033	-0.36603	9.77212
4209974	-0.840781	0.00325108	9.66934
4209984	-0.685733	0.11919	9.72318
4209994	-0.450329	-0.136011	9.81022
4210004	-0.553072	-0.218355	9.76338
4210014	-0.784974	-0.0696068	9.61731
4210024	-0.797476	-0.0349169	9.6681
4210034	-0.72613	0.182055	9.75731
4210044	-0.778759	0.286815	9.75156
4210054	-0.982984	0.293112	9.62979
4210064	-1.29489	0.576759	9.53752
4210074	-1.35338	0.695949	9.72163
4210084	-0.99439	0.212568	9.83603
4210094	-0.876069	-0.0912933	9.70302
4210104	-1.02749	0.00776386	9.663
4210114	-1.02795	-0.18998	9.76328
4210124	-0.874527	-0.654708	9.8651
4210134	-0.819235	-0.726974	9.65103
4210144	-1.01389	-0.082058	9.50886
4210154	-1.04298	0.162616	9.93448
4210164	-1.01659	-0.0624647	9.89887
4210174	-1.07516	-0.294837	9.58211
4210184	-1.05343	-0.188946	9.61882
4210194	-1.14526	0.275805	9.70167
4210204	-1.15915	0.463636	9.77231
4210214	-1.08961	0.581716	9.72577
4210224	-1.18841	0.599845	9.6909
4210234	-1.12689	0.149721	9.806
4210244	-1.05051	-0.236095	9.82505
4210254	-1.12834	-0.180649	9.75713
4210264	-1.00645	-0.160232	9.80666
4210274	-0.904638	-0.394202	9.79478
4210284	-0.884696	-0.42534	9.69669
4210294	-0.823458	-0.153152	9.70768
4210304	-0.755762	-0.103507	9.78187
4210314	-0.71668	-0.203896	9.77243
4210324	-0.768339	0.160327	9.65533
4210334	-0.689732	0.836236	9.59993
4210344	-0.570248	0.886352	9.69145
4210354	-0.646292	0.425926	9.77965
4210364	-0.712876	0.239774	9.77569
4210374	-0.643599	0.348439	9.73413
4210384	-0.602757	0.478202	9.77136
4210394	-0.597798	0.697352	9.76132
4210404	-0.521562	0.659496	9.77154
4210414	-0.485271	0.209935	9.90896
4210424	-0.606324	0.110676	9.76142
4210434	-0.701507	0.394025	9.65334
4210444	-0.599327	0.531255	9.79403
4210453	-0.450563	0.440745	9.79556
4210463	-0.465868	0.193341	9.82
4210473	-0.535151	0.115831	9.77501
4210483	-0.521643	0.228416	9.70148
4210493	-0.54189	0.355007	9.80189
4210503	-0.533723	0.512936	9.82218
4210513	-0.486275	0.737184	9.82405
4210523	-0.389831	0.646444	9.81774
4210533	-0.263186	0.772084	9.69338
4210543	-0.246074	1.15686	9.63221
4210553	-0.379837	0.915705	9.71621
4210563	-0.380924	0.294104	9.8415
4210573	-0.252331	0.165911	9.86186
4210583	-0.276904	0.526157	9.77504
4210593	-0.310968	0.719555	9.69189
4210603	-0.184919	0.959489	9.74564
4210613	-0.146718	1.04281	9.83153
4210623	-0.244635	0.846075	9.78788
4210633	-0.24026	0.536501	9.80552
4210643	-0.198978	0.241916	9.84878
4210653	-0.349802	0.18343	9.80326
4210663	-0.47898	0.440565	9.78913
4210673	-0.35815	0.451938	9.85789
4210683	-0.276775	0.189939	9.86934
4210693	-0.323212	0.115523	9.75891
4210703	-0.422042	0.205153	9.72223
4210713	-0.432472	0.36024	9.81773
4210723	-0.349279	0.207018	9.79317
4210733	-0.441359	0.0504971	9.64403
4210743	-0.518965	0.162672	9.74142
4210753	-0.542946	0.314806	9.90766
4210763	-0.541677	0.483582	9.79387
4210773	-0.486197	0.568143	9.74259
4210783	-0.495472	0.493946	9.82492
4210793	-0.493032	0.383215	9.78499
4210803	-0.54821	0.25598	9.6611
4210813	-0.508321	0.0929127	9.81052
4210823	-0.437893	-0.0735102	10.0142
4210833	-0.493843	-0.262341	9.90614
4210843	-0.521768	-0.119422	9.71507
4210853	-0.69723	0.32278	9.66492
4210863	-0.709514	0.454889	9.79425
4210873	-0.518228	0.271588	9.89592
4210883	-0.511274	0.182612	9.77472
4210893	-0.577735	0.36592	9.67087
4210903	-0.539772	0.361006	9.8495
4210913	-0.474555	-0.0145636	9.89623
4210923	-0.584673	-0.240903	9.81449
4210933	-0.636919	-0.422261	9.81126
4210943	-0.604175	-0.595634	9.74612
4210953	-0.628413	-0.440819	9.83128
4210963	-0.724946	-0.135585	9.83215
4210973	-0.717534	-0.0436754	9.69685
4210983	-0.626744	0.0566072	9.69965
4210993	-0.635792	0.0776186	9.77481
4211003	-0.630451	0.0106525	9.7673
4211013	-0.500784	-0.120239	9.68297
4211023	-0.552068	-0.0494576	9.65434
4211033	-0.819969	0.409803	9.71266
4211043	-0.757046	0.435605	9.78717
4211053	-0.709124	0.17133	9.71095
4211063	-0.596592	-0.28714	9.68633
4211073	-0.396212	-0.59376	9.62969
4211083	-0.597977	-0.109818	9.53406
4211093	-0.902881	0.520004	9.73356
4211103	-0.93482	0.67871	9.78483
4211113	-0.959511	0.676818	9.71196
4211123	-1.01977	0.582716	9.7632
4211133	-1.04943	0.38295	9.78558
4211143	-1.0584	0.244455	9.77904
4211153	-0.931367	0.0168982	9.83041
4211163	-0.798406	-0.406569	9.86805
4211173	-0.805779	-0.52894	9.74685
4211183	-0.844616	-0.381008	9.75033
4211193	-0.683682	-0.365648	9.78801
4211203	-0.628532	-0.106811	9.65129
4211213	-0.777639	0.152861	9.73597
4211223	-0.828249	0.506715	9.77165
4211233	-0.766242	0.850033	9.76659
4211243	-0.880892	0.627982	9.85122
4211253	-1.03955	0.249382	9.78479
4211263	-0.904484	-0.0962391	9.6967
4211273	-0.917914	-0.373096	9.68865
4211283	-1.06744	-0.403942	9.7902
4211293	-1.06518	-0.0882368	9.8252
4211303	-1.03239	0.286425	9.74139
4211313	-1.03483	0.428313	9.69477
4211323	-1.09327	0.447752	9.70989
4211333	-1.12477	0.163044	9.76767
4211343	-1.16177	-0.278605	9.8434
4211353	-1.03684	-0.52867	9.76182
4211363	-1.01488	-0.298622	9.61911
4211373	-1.24312	-0.0448589	9.66116
4211383	-1.27285	-0.113717	9.76597
4211393	-1.16218	0.0911016	9.753
4211403	-1.07094	0.369711	9.82753
4211413	-1.0013	0.23516	9.7874
4211423	-1.00784	0.0123243	9.65451
4211433	-1.10619	0.21355	9.69125
4211443	-0.934664	0.31424	9.70833
4211453	-0.517179	0.374104	9.61705
4211463	-0.462288	0.570748	9.65817
4211473	-0.6418	0.504881	9.69692
4211483	-0.612574	0.476095	9.68984
4211493	-0.62103	0.353866	9.75914
4211503	-0.577227	0.406018	9.74611
4211513	-0.249364	0.722135	9.79074
4211523	-0.16519	0.751763	9.8283
4211533	-0.293337	0.458165	9.72815
4211543	-0.216877	0.546676	9.64465
4211553	-0.114191	0.750393	9.77416
4211563	-0.0461559	0.618784	9.84821
4211573	-0.0724201	0.582051	9.71896
4211583	-0.0772543	0.715506	9.71529
4211593	0.0694618	1.08344	9.73841
4211603	0.18474	1.02367	9.82295
4211613	0.120647	0.576468	9.86864
4211623	0.0041151	0.441419	9.81279
4211633	-0.0590372	0.298783	9.83175
4211643	-0.181949	0.152367	9.89017
4211653	-0.328012	0.124701	9.92991
4211663	-0.379515	0.0980625	9.82274
4211673	-0.305404	0.0564184	9.87104
4211683	-0.275172	0.153282	9.92753
4211693	-0.315303	0.232883	9.87074
4211703	-0.311291	0.178618	9.80089
4211713	-0.271024	0.439879	9.75852
4211723	-0.311463	0.585987	9.8763
4211733	-0.320677	0.385649	9.87607
4211743	-0.259069	0.421943	9.80255
4211753	-0.362945	0.506918	9.77046
4211763	-0.433026	0.434541	9.73958
4211773	-0.309546	0.4469	9.84659
4211783	-0.279455	0.238828	9.91558
4211793	-0.351094	0.0887089	9.82941
4211803	-0.384277	0.0551529	9.82355
4211813	-0.396949	-0.12674	9.79883
4211823	-0.422948	-0.185218	9.75114
4211833	-0.467918	0.0205135	9.77662
4211843	-0.486671	0.403767	9.84202
4211853	-0.42666	0.436027	9.79709
4211863	-0.316896	0.26733	9.72684
4211873	-0.319878	0.40214	9.77565
4211883	-0.373518	0.37869	9.79215
4211893	-0.420179	0.182673	9.77532
4211903	-0.469543	0.0879793	9.8034
4211913	-0.41263	-0.102324	9.82111
4211923	-0.414181	-0.215988	9.85249
4211933	-0.510676	-0.00131893	9.85565
4211943	-0.500879	0.0748425	9.84953
4211953	-0.471067	-0.0876513	9.83635
4211963	-0.55344	0.0343952	9.7617
4211973	-0.583761	0.156793	9.69964
4211983	-0.523718	0.0743065	9.82914
4211993	-0.500811	-0.0751295	9.76758
4212003	-0.544872	-0.119837	9.69942
4212013	-0.542018	-0.00492191	9.90154
4212023	-0.598537	-0.102944	9.80065
4212033	-0.626908	-0.1959	9.71082
4212043	-0.594253	-0.193256	9.81272
4212053	-0.622842	-0.426877	9.81697
4212063	-0.573462	-0.348691	9.70355
4212073	-0.524486	0.0416555	9.6727
4212083	-0.616664	0.0849819	9.69
4212093	-0.767586	0.269592	9.63831
4212103	-0.808816	0.396999	9.77081
4212113	-0.710211	0.18577	9.90109
4212123	-0.667127	0.0597172	9.82107
4212133	-0.899525	0.139769	9.60048
4212143	-1.1214	0.433498	9.52756
4212153	-0.969174	0.250138	9.81274
4212163	-0.834943	-0.0430317	9.90907
4212173	-0.919871	-0.138679	9.71593
4212183	-0.906499	-0.354867	9.65551
4212193	-0.978759	-0.323957	9.74575
4212203	-1.06753	-0.187235	9.87045
4212213	-0.91718	-0.259413	9.84302
4212223	-0.882924	-0.223788	9.74409
4212233	-0.969485	-0.271384	9.74973
4212243	-1.00056	-0.248718	9.70444
4212253	-0.956109	0.160562	9.66809
4212263	-0.921953	0.400801	9.73547
4212273	-0.974158	0.0977201	9.82108
4212283	-1.13999	-0.267698	9.71101
4212293	-1.22948	-0.256402	9.59587
4212303	-1.22761	-0.350728	9.8223
4212313	-1.22022	-0.254398	9.8584
4212323	-1.15278	-0.15883	9.67891
4212333	-1.05446	-0.295879	9.72629
4212343	-0.932043	-0.266173	9.76609
4212353	-0.887127	-0.333674	9.7371
4212363	-1.02945	-0.432343	9.79792
4212373	-1.10386	-0.321632	9.83837
4212383	-1.06219	-0.210957	9.69033
4212393	-1.12843	0.0650043	9.66513
4212403	-1.06793	0.163404	9.78054
4212413	-0.946724	-0.0633268	9.67909
4212423	-1.07907	0.190856	9.5505
4212433	-1.30408	0.290275	9.711
4212443	-1.372	0.0757847	9.90302
4212453	-1.2304	-0.0158453	9.86127
4212463	-1.15519	-0.0979729	9.63434
4212473	-1.26982	-0.350834	9.63401
4212483	-1.12007	-0.253726	9.69753
4212493	-0.850683	0.189251	9.66881
4212503	-0.443125	0.449065	9.74815
4212513	-0.28373	0.343786	9.73162
4212523	-0.43366	0.029748	9.76411
4212533	-0.633823	-0.180632	9.74813
4212543	-0.666732	-0.216519	9.65182
4212553	-0.386763	0.297139	9.77438
4212563	-0.121346	0.682194	9.90411
4212573	0.0109558	0.612046	9.77075
4212583	-0.055666	0.516458	9.76449
4212593	-0.19313	0.231902	9.83032
4212603	-0.266868	0.0112638	9.78393
4212613	-0.144271	0.255344	9.81354
4212623	-0.10376	0.573682	9.76497
4212633	-0.181052	0.588195	9.77434
4212643	-0.0551643	0.549232	9.92567
4212653	-0.0169086	0.520709	9.92865
4212663	-0.0930271	0.28466	9.83964
4212673	-0.0698309	0.039423	9.94728
4212683	-0.137055	0.0940514	10.0325
4212693	-0.247467	-0.0174189	9.78104
4212703	-0.216366	-0.0588026	9.65528
4212713	-0.209025	0.149366	9.77431
4212723	-0.321123	0.193021	9.80471
4212733	-0.345389	0.431424	9.80199
4212743	-0.365112	0.603227	9.806
4212753	-0.457198	0.422524	9.82899
4212763	-0.469862	0.243189	9.71845
4212773	-0.395677	0.0372705	9.68517
4212783	-0.358492	0.00191307	9.79307
4212793	-0.28503	0.229651	9.92978
4212803	-0.20883	0.282361	9.93769
4212813	-0.401603	0.237947	9.69878
4212823	-0.563659	0.382928	9.59027
4212833	-0.423494	0.506059	9.73833
4212843	-0.331602	0.467273	9.89718
4212853	-0.300201	0.306254	9.94123
4212863	-0.233216	0.206639	9.77619
4212873	-0.255317	0.396747	9.5652
4212883	-0.174671	0.556314	9.8327
4212893	-0.0561047	0.223035	10.0387
4212903	-0.110199	0.0692701	9.81074
4212913	-0.0496721	0.148952	9.75512
4212923	0.0217085	0.275359	9.84663
4212933	-0.0190363	0.560167	9.79412
4212943	-0.0926065	0.560878	9.82312
4212953	-0.168932	0.138707	9.9151
4212963	-0.10641	-0.128218	9.92079
4212973	0.0085516	-0.0206861	9.83431
4212983	-0.20352	0.330139	9.75575
4212993	-0.343559	0.5116	9.76672
4213003	-0.189888	0.111272	9.7764
4213013	-0.285447	-0.0128517	9.77392
4213023	-0.429767	0.227763	9.85936
4213033	-0.538432	0.336561	9.82638
4213043	-0.550571	0.176048	9.70587
4213053	-0.588447	-0.098403	9.7916
4213063	-0.577571	-0.0824862	9.85377
4213073	-0.489241	0.21944	9.72267
4213083	-0.507841	0.286237	9.53884
4213093	-0.397238	-0.0309372	9.62963
4213103	-0.336957	-0.0636692	9.83888
4213113	-0.439341	0.277967	9.77177
4213123	-0.481852	0.346926	9.67223
4213133	-0.385596	0.0487881	9.76169
4213143	-0.453569	0.00147629	9.77795
4213153	-0.517767	-0.166711	9.73079
4213163	-0.233735	-0.462525	9.72168
4213173	-0.182986	0.129371	9.73823
4213183	-0.61348	0.74339	9.6973
4213193	-0.79666	0.579484	9.6335
4213203	-0.617067	0.445154	9.59984
4213213	-0.560998	0.321603	9.80161
4213223	-0.613211	0.0375881	9.88674
4213233	-0.552866	-0.0923376	9.84118
4213243	-0.59029	-0.145213	9.82603
4213253	-0.80973	0.0473185	9.71293
4213263	-1.01108	0.132956	9.70843
4213273	-0.976711	-0.124739	9.7027
4213283	-0.78335	-0.18032	9.76314
4213293	-0.670774	-0.112378	9.80616
4213303	-0.936683	0.0435228	9.75319
4213313	-1.30645	0.224642	9.75541
4213323	-1.14172	0.0450735	9.81731
4213333	-0.870406	-0.339859	9.86688
4213343	-0.846928	-0.606495	9.88456
4213353	-0.908288	-0.535141	9.69333
4213363	-1.22342	-0.111449	9.48297
4213373	-1.2631	0.115324	9.58446
4213383	-0.942446	-0.177818	9.86329
4213393	-0.640101	-0.427771	9.78262
4213403	-0.696278	-0.0589132	9.66037
4213413	-1.22148	0.258671	9.7786
4213423	-1.44023	0.0216188	9.83844
4213433	-1.23548	-0.575509	9.79895
4213443	-1.14833	-0.64	9.70091
4213453	-1.17799	-0.232323	9.78886
4213463	-1.25707	-0.376462	9.74975
4213473	-1.36572	-0.255225	9.45918
4213483	-1.49702	-0.0667496	9.74205
4213493	-1.72824	-0.362234	9.9408
4213503	-1.64978	-0.588826	9.66055
4213513	-1.34704	-0.517452	9.64798
4213523	-1.21019	-0.05408	9.67286
4213533	-1.08341	0.378708	9.62171
4213543	-0.897087	0.648222	9.71159
4213553	-0.763284	0.772424	9.71632
4213563	-0.62222	0.707429	9.59764
4213573	-0.797917	0.37734	9.74813
4213583	-1.07947	-0.181041	9.74096
4213593	-1.07042	-0.211586	9.66604
4213603	-1.11279	0.0974398	9.81292
4213613	-1.18696	0.289406	9.67504
4213623	-1.13879	0.0774422	9.59274
4213633	-1.00323	-0.247497	9.7519
4213643	-0.989632	-0.371033	9.77013
4213653	-0.976051	-0.461202	9.78751
4213663	-1.0602	-0.583952	9.83807
4213673	-1.11397	-0.268976	9.84597
4213683	-0.869917	0.422427	9.83327
4213693	-0.543811	0.498859	9.83148
4213703	-0.330825	-0.0950804	9.73046
4213713	-0.499365	-0.340113	9.66482
4213723	-0.853862	0.130961	9.81302
4213733	-0.92844	0.651595	9.84306
4213743	-0.707379	0.461236	9.67034
4213753	-0.504101	0.229537	9.55956
4213763	-0.225949	0.634418	9.71812
4213772	0.0159111	0.81434	9.8469
4213782	-0.255375	0.496497	9.73418
4213792	-0.480115	-0.0186253	9.73878
4213802	-0.276184	0.0851784	9.69099
4213812	-0.375219	0.680064	9.64147
4213822	-0.330481	1.0247	9.68777
4213832	-0.00939751	1.04405	9.69189
4213842	-0.0367117	0.909566	9.84139
4213852	-0.143721	0.804996	10.0426
4213862	-0.0945091	0.640208	9.9401
4213872	-0.0832634	0.463478	9.74515
4213882	-0.132754	0.705002	9.67894
4213892	-0.137216	0.532925	9.84979
4213902	-0.212332	0.36719	10.083
4213912	-0.212284	0.291273	9.91344
4213922	-0.217176	-0.0466938	9.75498
4213932	-0.365979	0.117524	9.83733
4213942	-0.423702	0.341559	9.83301
4213952	-0.405066	0.249069	9.76023
4213962	-0.434532	0.211245	9.77375
4213972	-0.446791	0.324636	9.73203
4213982	-0.401464	0.55242	9.68604
4213992	-0.278303	0.719989	9.7081
4214002	-0.322426	0.801423	9.72249
4214012	-0.322825	1.13044	9.71888
4214022	-0.167502	1.22719	9.76845
4214032	-0.0581636	0.726939	9.97339
4214042	0.135958	0.113423	10.0385
4214052	0.215181	-0.0302935	9.82767
4214062	-0.148376	-0.0760136	9.72643
4214072	-0.521562	-0.015027	9.87918
4214082	-0.483388	0.135024	9.96337
4214092	-0.48981	0.288626	9.81617
4214102	-0.512665	0.352612	9.70839
4214112	-0.393988	0.42216	9.81366
4214122	-0.4217	0.65041	9.78718
4214132	-0.458163	0.854441	9.7465
4214142	-0.560925	0.776516	9.87106
4214152	-0.724032	0.257343	9.71741
4214162	-0.76656	0.321187	9.78952
4214172	-0.485654	0.474429	9.99274
4214182	-0.311562	0.214664	9.71897
4214192	-0.68448	0.309242	9.6946
4214202	-0.786808	0.474169	9.8035
4214212	-0.459505	0.225985	9.79096
4214222	-0.243473	-0.0504093	9.7964
4214232	-0.504062	0.0693331	9.8209
4214242	-0.619424	0.290818	9.90377
4214252	-0.481291	0.236702	9.83705
4214262	-0.635118	0.365458	9.83901
4214272	-0.663328	0.491295	9.91039
4214282	-0.529301	0.105821	9.75655
4214292	-0.580145	0.422009	9.62642
4214302	-0.612963	0.759655	9.77314
4214312	-0.80214	0.315122	9.73993
4214322	-1.04242	0.155744	9.66789
4214332	-0.985917	0.287133	9.76793
4214342	-0.865912	0.387228	9.76293
4214352	-0.896004	0.600068	9.69382
4214362	-0.96268	0.637943	9.68417
4214372	-0.841453	0.34669	9.67012
4214382	-0.842998	0.240349	9.61555
4214392	-0.999719	0.267793	9.75808
4214402	-1.04299	0.220162	9.76151
4214412	-0.954756	0.102751	9.64581
4214422	-0.823973	-0.21743	9.80457
4214432	-0.702008	-0.361286	9.77253
4214442	-0.886491	0.0663519	9.71269
4214452	-1.12369	0.107565	9.83584
4214462	-0.994093	0.153037	9.74704
4214472	-0.901196	0.304774	9.71054
4214482	-0.927459	0.241652	9.66772
4214492	-0.801369	0.403111	9.6377
4214502	-0.515121	0.484618	9.83353
4214512	-0.795071	0.511323	9.94976
4214522	-1.09847	0.123512	9.89886
4214532	-0.840586	-0.499797	9.76788
4214542	-0.8775	-0.478862	9.6556
4214552	-1.06179	0.0601473	9.84546
4214562	-1.11966	-0.0112228	9.85339
4214572	-1.15434	-0.19588	9.53683
4214582	-1.13934	0.0941954	9.68757
4214592	-1.23663	0.278075	9.79151
4214602	-1.14948	0.225675	9.60741
4214612	-0.89258	0.0313778	9.65129
4214622	-0.973038	-0.0193758	9.7193
4214632	-1.04723	0.210375	9.75198
4214642	-0.661563	0.0758686	9.89245
4214652	-0.472683	0.00399494	9.691
4214662	-0.689498	0.281103	9.52827
4214672	-0.632478	0.416667	9.79023
4214682	-0.513164	0.228577	9.89255
4214692	-0.538031	0.00277805	9.83011
4214702	-0.547889	0.0791464	9.83236
4214712	-0.754987	-0.0682983	9.85249
4214722	-0.949303	-0.283924	9.81793
4214732	-0.867046	-0.0767279	9.71271
4214742	-0.754318	0.293941	9.65753
4214752	-0.58628	0.484577	9.6483
4214762	-0.467087	0.613638	9.6568
4214772	-0.379616	0.389172	9.64383
4214782	-0.417739	0.0719423	9.73539
4214792	-0.445361	0.0593061	9.80079
4214802	-0.301461	0.195373	9.71052
4214812	-0.175632	0.342654	9.68561
4214822	-0.0594254	0.642447	9.65626
4214832	0.169063	1.0818	9.67286
4214842	0.120254	0.912808	9.77909
4214852	-0.169221	0.239276	9.74578
4214862	-0.0724373	-0.0327158	9.73933
4214872	0.0360899	0.158433	9.9362
4214882	-0.0629721	0.162386	9.90645
4214892	-0.116065	0.143805	9.74181
4214902	0.117762	0.494571	9.8372
4214912	0.300921	0.710911	9.89966
4214922	0.0404949	0.46874	9.76184
4214932	-0.0967703	0.394142	9.64607
4214942	0.0035677	0.523042	9.64871
4214952	0.0128012	0.65409	9.73644
4214962	-0.0182667	0.6313	9.77807
4214972	-0.0803595	0.476086	9.86411
4214982	-0.165904	0.525543	9.93405
4214992	-0.174693	0.591889	9.91755
4215002	-0.10526	0.314464	9.8858
4215012	-0.0528193	0.0360193	9.81497
4215022	-0.012763	0.159173	9.78085
4215032	-0.143065	0.564561	9.78195
4215042	-0.398618	0.708024	9.80137
4215052	-0.339299	0.504879	9.69091
4215062	-0.256347	0.268189	9.75897
4215072	-0.434795	0.184977	9.86492
4215082	-0.542417	0.340951	9.81174
4215092	-0.531322	0.475912	9.86614
4215102	-0.453976	0.327936	9.86016
4215112	-0.457289	-0.0111122	9.84475
4215122	-0.444187	-0.212878	9.78871
4215132	-0.405729	-0.062602	9.69664
4215142	-0.286794	0.0258913	9.79668
4215152	-0.105359	-0.0784845	9.81478
4215162	-0.233466	0.185485	9.69572
4215172	-0.480366	0.579406	9.80935
4215182	-0.559545	0.673596	9.76418
4215192	-0.403553	0.474922	9.64024
4215202	-0.301708	0.147828	9.71648
4215212	-0.287037	-0.00956154	9.71657
4215222	-0.258229	0.316711	9.79098
4215232	-0.30275	0.748784	9.71546
4215242	-0.517937	0.948895	9.52619
4215252	-0.650938	0.771546	9.68008
4215262	-0.527303	0.385723	9.88296
4215272	-0.476241	0.227056	9.83282
4215282	-0.625571	0.442089	9.66612
4215292	-0.724895	0.436631	9.64135
4215302	-0.798985	0.408986	9.68056
4215312	-0.856877	0.373192	9.77335
4215322	-0.793067	0.184131	9.83908
4215332	-0.795235	0.28044	9.87462
4215342	-0.943715	0.392224	9.78174
4215352	-0.983398	0.028409	9.73146
4215362	-0.838728	-0.465307	9.81921
4215372	-0.821029	-0.279108	10.0109
4215382	-0.781487	-0.198609	9.98733
4215392	-0.866185	-0.186955	9.70095
4215402	-1.02783	0.22692	9.66187
4215412	-0.98113	0.293891	9.85349
4215422	-1.00244	-0.183917	9.82148
4215432	-1.01623	-0.207675	9.64023
4215442	-0.87462	0.274426	9.83644
4215452	-0.714293	0.475929	9.87888
4215462	-0.782216	0.369555	9.63936
4215472	-0.917707	0.470117	9.65742
4215482	-0.965179	0.286211	9.74028
4215492	-1.04711	-0.0351572	9.67215
4215502	-1.04074	-0.0384398	9.72978
4215512	-0.997111	-0.231817	9.81349
4215522	-1.02672	-0.579348	9.83962
4215532	-0.903975	-0.671139	9.79201
4215542	-0.854819	-0.0664167	9.75097
4215552	-0.861584	0.213099	9.86258
4215562	-0.874227	0.0245781	9.58077
4215572	-1.10775	0.226493	9.46184
4215582	-1.33688	0.661407	9.68505
4215592	-1.29167	0.553441	9.56658
4215602	-1.1281	-0.0545111	9.66311
4215612	-0.897927	-0.536066	9.85087
4215622	-0.69521	-0.696022	9.74776
4215632	-0.729609	-0.340439	9.66525
4215642	-0.86597	-0.0415239	9.60675
4215652	-0.950719	0.0123339	9.66233
4215662	-1.03084	0.430672	9.79468
4215672	-1.03192	0.476617	9.72676
4215682	-0.907765	0.210408	9.57407
4215692	-0.746825	0.189847	9.69842
4215702	-0.666821	0.00693417	9.81735
4215712	-0.720549	0.219604	9.74209
4215722	-0.656571	0.256659	9.88308
4215732	-0.501852	-0.106027	9.87281
4215742	-0.187133	-0.0760756	9.73336
4215752	0.00631142	0.34267	9.69125
4215762	-0.0493383	0.660714	9.81806
4215772	-0.244584	0.74796	9.87582
4215782	-0.475839	0.632092	9.64122
4215792	-0.466895	0.210809	9.58097
4215802	-0.398549	-0.0521784	9.73936
4215812	-0.396529	0.175292	9.86711
4215822	-0.326232	0.349855	9.9764
4215832	-0.280519	0.281987	9.93317
4215842	-0.436581	0.0594635	9.81528
4215852	-0.515344	-0.213496	9.77469
4215862	-0.396926	-0.1365	9.79877
4215872	-0.501187	0.222502	9.85022
4215882	-0.624811	0.56287	9.73425
4215892	-0.519335	0.462862	9.73823
4215902	-0.502421	0.00640678	9.79369
4215912	-0.535877	-0.0127277	9.79221
4215922	-0.556999	0.304894	9.90201
4215932	-0.523974	0.0764103	9.91928
4215942	-0.394053	-0.00438023	9.74318
4215952	-0.386105	0.0561285	9.68494
4215962	-0.514387	0.0529442	9.74893
4215972	-0.646222	0.301767	9.78249
4215982	-0.689247	0.301681	9.77996
4215992	-0.576856	0.191172	9.74651
4216002	-0.471144	0.167307	9.74381
4216012	-0.580268	0.0952187	9.72492
4216022	-0.510478	0.23445	9.75885
4216032	-0.0725031	0.155163	9.82
4216042	-0.0572376	-0.111756	9.64187
4216052	-0.383143	0.626653	9.61346
4216062	-0.567254	1.38004	9.79313
4216072	-0.551428	0.998129	9.77993
4216082	-0.362815	0.234995	9.77706
4216092	-0.24252	-0.341418	9.61773
4216102	-0.313464	-0.277755	9.6834
4216112	-0.517685	0.290183	9.88564
4216122	-0.606143	0.367722	9.74983
4216132	-0.589343	0.269457	9.45316
4216142	-0.505586	0.654146	9.5722
4216152	-0.456759	0.676892	9.89847
4216162	-0.645948	0.282579	9.77823
4216172	-0.759622	0.296159	9.75214
4216182	-0.446786	0.314528	9.90349
4216192	-0.218653	-0.337298	9.96206
4216202	-0.375997	-0.656754	9.78462
4216212	-0.639728	0.0319052	9.67538
4216222	-0.515793	0.196205	9.94055
4216232	-0.311699	-0.100386	9.90292
4216242	-0.652555	0.214484	9.72717
4216252	-0.789926	0.354034	9.77747
4216262	-0.35472	-0.0883808	9.81433
4216272	-0.251844	-0.351789	9.95571
4216282	-0.635712	-0.0919962	9.86457
4216292	-0.854417	0.274323	9.64706
4216302	-0.769191	0.315206	9.75109
4216312	-0.607951	0.235112	9.78644
4216322	-0.541316	0.31896	9.70724
4216332	-0.603003	0.494954	9.68961
4216342	-0.678657	0.408633	9.67306
4216352	-0.72778	0.380548	9.6947
4216362	-0.648705	0.517365	9.81975
4216372	-0.441591	-0.0309887	9.82205
4216382	-0.390889	-0.592015	9.70587
4216392	-0.386971	-0.494446	9.97519
4216402	-0.27693	-0.060586	9.96589
4216412	-0.238544	0.309301	9.69673
4216422	-0.47548	0.386317	9.72847
4216432	-0.959712	0.562316	9.71931
4216442	-1.08315	0.40661	9.78745
4216452	-0.806819	0.0882969	9.83086
4216462	-0.836094	0.257872	9.7486
4216472	-0.849125	0.304897	9.72282
4216482	-0.451917	-0.0900497	9.75147
4216492	-0.205736	-0.0646152	9.8082
4216502	-0.603888	0.688194	9.78471
4216512	-1.05201	0.932328	9.64254
4216522	-0.879939	0.332208	9.67267
4216532	-0.618215	0.018754	9.71986
4216542	-0.679084	0.129859	9.77539
4216552	-0.728675	-0.0600462	9.81064
4216562	-0.534916	-0.396631	9.70196
4216572	-0.70131	-0.0879765	9.83678
4216582	-0.971334	0.396443	9.76094
4216592	-0.877537	0.333665	9.54414
4216602	-0.883113	0.286008	9.73083
4216612	-0.978421	0.156647	9.89525
4216622	-1.07553	-0.0690527	9.83809
4216632	-1.00724	-0.0930128	9.64738
4216642	-0.813144	-0.018054	9.77602
4216652	-0.774379	-0.0328693	9.94066
4216662	-0.714349	-0.000260353	9.72421
4216672	-0.613264	0.273828	9.62316
4216682	-0.732064	0.466094	9.68275
4216692	-0.82334	0.234801	9.77853
4216702	-0.539349	0.0390854	9.76687
4216712	-0.501984	0.239725	9.77827
4216722	-0.818614	0.325028	9.94803
4216732	-0.846173	0.181483	9.93099
4216742	-0.694117	-0.0934858	9.62295
4216752	-0.543278	-0.0515089	9.58313
4216762	-0.631379	0.377818	9.77191
4216772	-0.885935	0.682858	9.76823
4216782	-1.08622	0.768005	9.74475
4216792	-1.17167	0.622381	9.64813
4216802	-0.93946	0.438281	9.53307
4216812	-0.495553	0.105536	9.75347
4216822	-0.196654	-0.214674	9.90783
4216832	-0.488909	0.0614443	9.89314
4216842	-0.811738	0.409859	9.90817
4216852	-0.786229	0.445445	9.62291
4216862	-0.738171	0.517266	9.44764
4216872	-0.662713	0.39363	9.64579
4216882	-0.629065	-0.102376	9.83187
4216892	-0.480773	-0.340405	9.84665
4216902	-0.277412	-0.162649	9.89223
4216912	-0.365465	0.207617	9.82524
4216922	-0.27011	0.200956	9.75003
4216932	-0.221991	0.0601425	9.83743
4216942	-0.433942	0.132298	9.68019
4216952	-0.55114	0.331153	9.62536
4216962	-0.640384	0.315589	9.76343
4216972	-0.637699	0.257168	9.71743
4216982	-0.71026	0.395621	9.72393
4216992	-0.533093	0.338656	9.73105
4217002	-0.307863	0.322357	9.64944
4217012	-0.356989	0.299038	9.67096
4217022	-0.486141	0.494208	9.6584
4217032	-0.549228	0.842411	9.66014
4217042	-0.505399	0.784584	9.82141
4217052	-0.477037	0.24847	9.93197
4217062	-0.508514	-0.040658	9.81835
4217072	-0.468139	-0.0679493	9.86906
4217082	-0.416717	-0.477158	9.9063
4217092	-0.427199	-0.786169	9.76107
4217101	-0.203916	-0.575027	9.62117
4217111	-0.223054	0.0822554	9.77011
4217121	-0.420825	0.468339	9.94876
4217131	-0.452646	0.374763	9.83492
4217141	-0.669593	0.301476	9.7716
4217151	-0.550096	0.383098	9.60505
4217161	-0.216804	0.412984	9.64774
4217171	-0.45381	-0.0561762	9.95537
4217181	-0.598113	-0.44649	9.80432
4217191	-0.428979	-0.294129	9.60555
4217201	-0.47537	0.0929966	9.82168
4217211	-0.535849	0.573442	9.77257
4217221	-0.549405	0.584788	9.84295
4217231	-0.585551	-0.0409164	9.99486
4217241	-0.676548	-0.219202	9.74152
4217251	-0.578895	-0.0102568	9.70386
4217261	-0.186399	0.0639992	9.80132
4217271	-0.397291	0.106717	9.79734
4217281	-0.823967	-0.189059	9.80354
4217291	-0.50444	-0.264312	9.83856
4217301	-0.274464	0.419618	9.90621
4217311	-0.316608	0.915116	9.70058
4217321	-0.332737	0.790149	9.47888
4217331	-0.49887	0.450546	9.63017
4217341	-0.626538	0.186816	9.94856
4217351	-0.649261	-0.0997162	9.93543
4217361	-0.593636	-0.317313	9.63455
4217371	-0.508161	-0.233653	9.73275
4217381	-0.626529	0.20623	9.77655
4217391	-0.807042	0.658078	9.73063
4217401	-1.09251	0.568533	9.77803
4217411	-0.907595	0.443849	9.56339
4217421	-0.55515	0.402276	9.60903
4217431	-0.749346	0.479152	9.81956
4217441	-0.812643	0.672388	9.91574
4217451	-0.649938	0.258023	9.93584
4217461	-0.724924	-0.102099	9.65947
4217471	-1.03783	0.0342731	9.58994
4217481	-1.00635	0.313868	9.70381
4217491	-0.848969	0.533224	9.88379
4217501	-0.943423	0.286889	9.95117
4217511	-0.995186	0.310944	9.59019
4217521	-0.899395	0.542368	9.49944
4217531	-0.790686	0.302315	9.62151
4217541	-0.624506	0.484272	9.64574
4217551	-0.570403	0.597348	9.9605
4217561	-0.568341	0.105534	9.93975
4217571	-0.747099	0.209035	9.70268
4217581	-0.798901	0.225071	9.77068
4217591	-0.588167	-0.0844545	9.78619
4217601	-0.71442	0.132856	9.89234
4217611	-0.564913	0.201834	9.78982
4217621	-0.493187	0.197559	9.62264
4217631	-0.843191	0.699574	9.86085
4217641	-0.918684	0.870529	9.833
4217651	-0.938156	0.439533	9.76657
4217661	-0.965042	-0.0522175	9.74888
4217671	-0.683718	-0.189165	9.6117
4217681	-0.371416	-0.165785	9.77243
4217691	-0.355995	0.431666	9.82011
4217701	-0.689564	1.06178	9.84641
4217711	-0.82348	0.577996	9.76981
4217721	-0.723555	0.45486	9.61683
4217731	-0.557092	0.576939	9.72359
4217741	-0.382812	0.382739	9.95794
4217751	-0.463854	0.456161	10.0323
4217761	-0.954047	0.325838	9.7971
4217771	-1.12123	0.0662441	9.53658
4217781	-0.923936	0.125436	9.60863
4217791	-0.785106	0.258712	9.78017
4217801	-0.646147	0.11587	9.78722
4217811	-0.629545	-0.209207	9.75833
4217821	-0.744882	-0.0544529	9.8429
4217831	-0.851831	0.377271	9.93998
4217841	-0.70546	0.321574	9.81185
4217851	-0.589373	-0.372048	9.73148
4217861	-0.656543	-0.450884	9.82005
4217871	-0.884361	0.0647984	9.84595
4217881	-0.9014	0.173413	9.80407
4217891	-0.79833	0.107872	9.84992
4217901	-0.619775	-0.0494547	9.66433
4217911	-0.561779	0.386612	9.55663
4217921	-0.578127	0.65844	9.92514
4217931	-0.520923	0.422904	9.8535
4217941	-0.453919	0.297247	9.60336
4217951	-0.427087	0.247937	9.7253
4217961	-0.73569	0.203084	9.84166
4217971	-0.825184	0.187991	9.81296
4217981	-0.632955	0.3646	9.62922
4217991	-0.598494	0.531009	9.60797
4218001	-0.774285	0.434484	9.75253
4218011	-0.781058	0.097023	9.79881
4218021	-0.439906	-0.267842	9.88533
4218031	-0.143162	-0.460239	9.81717
4218041	-0.410069	0.186988	9.76596
4218051	-0.838729	0.828406	9.8626
4218061	-0.555253	0.611658	9.77522
4218071	-0.245148	0.231672	9.64591
4218081	-0.362384	-0.153431	9.69642
4218091	-0.560863	0.057003	9.72227
4218101	-0.801594	0.324183	9.7299
4218111	-0.896592	0.10669	9.80605
4218121	-0.666314	0.068655	9.80628
4218131	-0.349722	0.0522947	9.72053
4218141	-0.389514	-0.0662136	9.74978
4218151	-0.732748	0.163608	9.79043
4218161	-0.833658	0.113427	9.88105
4218171	-0.602119	-0.41129	9.87465
4218181	-0.472314	-0.206085	9.69128
4218191	-0.611201	0.418057	9.66726
4218201	-0.588177	0.635528	9.59163
4218211	-0.444785	0.671392	9.68493
4218221	-0.586315	0.574568	9.81721
4218231	-0.492947	0.220923	9.78881
4218241	-0.450697	0.202657	9.63454
4218251	-0.512221	0.679173	9.43301
4218261	-0.372406	0.328098	9.68837
4218271	-0.347853	-0.00610828	9.86029
4218281	-0.520492	0.692147	9.7514
4218291	-0.71789	0.837569	9.84567
4218301	-0.531963	0.154481	9.80249
4218311	-0.272109	-0.117428	9.79611
4218321	-0.017952	-0.11984	9.8826
4218331	0.0927696	-0.010005	9.70053
4218341	-0.100808	0.536188	9.79914
4218351	-0.223453	1.02093	9.91777
4218361	-0.156836	1.19092	9.66488
4218371	-0.270692	0.999657	9.64873
4218381	-0.387951	0.671753	9.69779
4218391	-0.166076	0.399646	9.68441
4218401	-0.299157	0.422493	9.83322
4218411	-0.488485	0.32813	9.87687
4218421	-0.215055	-0.0460386	9.97393
4218431	0.0595026	-0.577992	10.056
4218441	0.0257921	-0.582356	9.88739
4218451	0.167066	0.105178	9.91161
4218461	0.273437	0.407285	9.97214
4218471	-0.390149	0.80108	9.90401
4218481	-1.00804	1.17467	9.79144
4218491	-0.898149	0.708241	9.643
4218501	-0.349561	0.309568	9.70925
4218511	-0.0108986	0.179366	9.83254
4218521	-0.0857449	0.0688457	9.80236
4218531	-0.408505	0.267287	9.73543
4218541	-0.844977	0.531391	9.8126
4218551	-0.835671	0.486076	9.90482
4218561	-0.559699	-0.234595	9.88219
4218571	-0.617751	-0.489184	9.81377
4218581	-0.527672	0.0498695	9.81493
4218591	-0.380774	0.644272	9.74179
4218601	-0.806046	0.802796	9.79371
4218611	-0.838265	0.342091	9.87021
4218621	-0.305057	-0.0363598	9.61107
4218631	-0.582131	0.0792179	9.84432
4218641	-1.04801	0.148201	9.93901
4218651	-0.882085	-0.25996	9.6447
4218661	-0.634804	-0.29919	9.59832
4218671	-0.655774	0.277915	9.78254
4218681	-0.799623	0.649196	9.94092
4218691	-0.750107	0.410577	9.74979
4218701	-0.701745	0.39171	9.57208
4218711	-0.902727	0.88703	9.54767
4218721	-1.20694	1.09936	9.83404
4218731	-1.09247	0.458901	9.78081
4218741	-0.796537	-0.270936	9.40227
4218751	-0.767282	-0.436092	9.65593
4218761	-1.0834	-0.341848	9.98748
4218771	-1.34454	-0.109324	9.76133
4218781	-1.24826	0.217189	9.65866
4218791	-1.1019	0.12522	9.78872
4218801	-0.77949	-0.468255	9.70367
4218811	-0.636333	-0.486909	9.71734
4218821	-0.999932	0.121785	10.0235
4218831	-1.16885	0.131713	10.0419
4218841	-0.960952	-0.275523	9.59757
4218851	-0.964622	-0.412044	9.66752
4218861	-1.18199	-0.163985	9.85805
4218871	-1.09767	0.204297	9.71074
4218881	-1.04828	0.237026	9.68423
4218891	-1.09311	0.0947971	9.71855
4218901	-0.841062	0.084177	9.67173
4218911	-0.559591	0.19939	9.69491
4218921	-0.572387	0.279312	9.83505
4218931	-1.10352	0.226399	9.64313
4218941	-1.62345	0.0437279	9.59809
4218951	-1.46571	0.0125418	9.86544
4218961	-1.18563	0.297753	9.82229
4218971	-1.16991	0.182774	9.80232
4218981	-1.12931	-0.385352	9.78101
4218991	-0.892311	-0.605365	9.75291
4219001	-0.716305	-0.445133	9.85926
4219011	-0.792658	-0.0996571	9.75547
4219021	-0.886003	0.240034	9.61272
4219031	-0.96188	0.0225811	9.69
4219041	-0.86272	-0.224467	9.72593
4219051	-0.610919	-0.277864	9.68494
4219061	-0.830719	0.0834827	9.82957
4219071	-1.04418	0.546762	9.85765
4219081	-0.934978	0.497823	9.62235
4219091	-0.73315	0.540639	9.61409
4219101	-0.806609	0.24803	9.7363
4219111	-1.14194	0.00462437	9.73702
4219121	-0.997632	0.419118	9.71594
4219131	-0.652411	0.47141	9.8874
4219141	-0.568647	0.205754	9.94196
4219151	-0.703153	-0.0963058	9.69872
4219161	-0.755672	-0.258477	9.69975
4219171	-0.878173	-0.104844	9.74104
4219181	-0.842621	0.0328264	9.53001
4219191	-0.312912	0.327236	9.65378
4219201	-0.171471	0.561596	9.86103
4219211	-0.353192	0.778631	9.58755
4219221	-0.0751333	0.797891	9.58914
4219231	0.0798016	0.477287	9.91608
4219241	-0.00913525	0.426373	9.79303
4219251	0.0935726	0.65462	9.57889
4219261	0.0555696	0.694763	9.65663
4219271	-0.0605392	0.809541	9.6707
4219281	-0.145291	0.851308	9.81234
4219291	-0.412749	0.828673	10.0497
4219301	-0.46115	0.350074	9.9875
4219311	-0.416039	-0.138748	9.71194
4219321	-0.347291	-0.0778513	9.85261
4219331	-0.204934	-0.112996	9.9667
4219341	-0.0942879	0.161113	9.86621
4219351	-0.0887375	0.253879	9.76413
4219361	-0.296428	0.292921	9.61751
4219371	-0.453925	0.947591	9.66785
4219381	-0.58548	1.13654	9.78394
4219391	-0.587904	0.577858	9.75986
4219401	-0.283646	0.159871	9.82174
4219411	-0.0436296	0.319371	9.89853
4219421	-0.316113	0.330912	9.79643
4219431	-0.683887	0.187048	9.77366
4219441	-0.725955	0.470259	9.65918
4219451	-0.421485	0.190381	9.7128
4219461	-0.0931177	-0.71596	9.70273
4219471	-0.110958	-0.614302	9.76104
4219481	-0.557764	0.202605	10.0046
4219491	-0.841352	0.755919	9.82618
4219501	-0.614933	1.07011	9.79819
4219511	-0.473321	0.945117	9.75729
4219521	-0.416824	0.464296	9.79188
4219531	-0.351927	0.200688	9.92626
4219541	-0.448864	0.234821	9.77199
4219551	-0.53828	0.00743961	9.83444
4219561	-0.316599	-0.440909	9.83028
4219571	-0.168716	-0.304466	9.75454
4219581	-0.341584	0.260098	9.82531
4219591	-0.43208	0.750629	9.79801
4219601	-0.474239	1.24101	9.76402
4219611	-0.499252	1.39433	9.6062
4219621	-0.520128	1.14984	9.55877
4219631	-0.486853	0.894499	9.82924
4219641	-0.744617	0.586235	9.90288
4219651	-0.959188	-0.0765305	9.73079
4219661	-0.633827	-0.764472	9.68165
4219671	-0.488587	-0.712953	9.82706
4219681	-0.580242	0.0116301	9.8128
4219691	-0.691355	0.250227	9.81926
4219701	-0.895483	-0.0466766	9.96246
4219711	-0.99101	-0.230209	9.87574
4219721	-0.867236	-0.241456	9.80709
4219731	-0.538608	-0.475952	9.77046
4219741	-0.413598	-0.232623	9.58583
4219751	-0.812729	0.289321	9.67295
4219761	-1.318	0.561121	9.86498
4219771	-1.15281	0.605684	9.74018
4219781	-0.729384	0.400349	9.72269
4219791	-0.766029	0.433252	9.51959
