Timestamp(ms E-10)	gyro_X	gyro_Y	gyro_Z	
4185354	0.00971389	-0.0467769	-0.0320898
4185364	0.148409	-0.158507	-0.217099
4185374	0.18528	-0.160635	-0.260686
4185384	0.0942056	-0.0510395	-0.119684
4185394	0.0152059	0.0325416	-0.000747204
4185404	-0.00603521	0.0535004	0.0315619
4185414	0.00225759	0.0478687	0.0183419
4185424	0.0085324	0.0474836	0.00273311
4185434	0.00864959	0.055916	0.000390291
4185444	0.00946033	0.0676905	0.00440109
4185454	0.0135431	0.0752022	0.00765145
4185464	0.0146102	0.0773256	0.00766075
4185474	0.0114641	0.0794142	0.00635207
4185484	0.010391	0.0847154	0.0061512
4185494	0.0103866	0.0900186	0.00601435
4185504	0.011575	0.095271	0.00381756
4185514	0.0128869	0.101531	-0.000530243
4185524	0.01319	0.109885	-0.00605881
4185534	0.0137435	0.116011	-0.0157802
4185544	0.0122215	0.122107	-0.0266918
4185554	0.00856078	0.12926	-0.0377587
4185564	0.00678766	0.138643	-0.0445046
4185574	0.00489497	0.142776	-0.0489898
4185584	0.00181091	0.144838	-0.0513605
4185594	0.000804305	0.14481	-0.0524864
4185604	0.000865579	0.145844	-0.0535758
4185614	0.00294447	0.141632	-0.0522764
4185624	0.0139045	0.11291	-0.0551447
4185634	0.0337498	0.070735	-0.044338
4185644	0.0371124	0.0488654	-0.0275784
4185654	0.0257384	0.0533775	-0.0166471
4185664	0.0150399	0.0660845	-0.0176158
4185674	0.014459	0.0764776	-0.0264488
4185684	0.0163896	0.0845958	-0.0414708
4185694	0.0152417	0.0884123	-0.0586989
4185704	0.0159848	0.0902171	-0.0714967
4185714	0.0196248	0.0910994	-0.0787655
4185724	0.0207583	0.0878932	-0.0796813
4185734	0.0162367	0.0858692	-0.075635
4185744	0.0147352	0.0839305	-0.0682108
4185754	0.0153738	0.0788139	-0.0605766
4185764	0.0162617	0.0725312	-0.0571624
4185774	0.0140656	0.068311	-0.0561191
4185784	0.0128762	0.0641191	-0.0539498
4185794	0.0116255	0.058893	-0.0506914
4185804	0.00911999	0.053744	-0.044311
4185814	0.0088743	0.0506674	-0.0399812
4185824	0.00988376	0.047514	-0.0387733
4185834	0.0108318	0.0433263	-0.0364758
4185844	0.0115938	0.0392177	-0.0309926
4185854	0.0144943	0.0340524	-0.0253541
4185864	0.0142494	0.0299153	-0.020997
4185874	0.0108604	0.0257459	-0.0178939
4185884	0.00985622	0.0225353	-0.0189378
4185894	0.00891435	0.0192988	-0.0210435
4185904	0.00879288	0.0161695	-0.0188377
4185914	0.00861013	0.0120062	-0.0155424
4185924	0.00836539	0.00786912	-0.0111852
4185934	0.00937474	0.00471556	-0.0099771
4185944	0.00931621	0.000499368	-0.00880575
4185954	0.0104516	-0.00482798	-0.00966668
4185964	0.0114609	-0.00798142	-0.00845861
4185974	0.0124073	-0.010048	-0.00621605
4185984	0.011217	-0.0131791	-0.00407422
4185994	0.00914407	-0.0163916	-0.00518215
4186004	0.0081383	-0.0174806	-0.00628066
4186014	0.0081383	-0.0174806	-0.00628066
4186024	0.00920963	-0.0206605	-0.00613463
4186034	0.00939941	-0.0249821	-0.00921082
4186044	0.00839627	-0.029253	-0.0102273
4186054	0.0094676	-0.0324329	-0.0100812
4186064	0.0118562	-0.0357161	-0.0141188
4186074	0.0109754	-0.0379186	-0.0173137
4186084	0.0111634	-0.0401188	-0.0204448
4186094	0.0123581	-0.0422908	-0.0224499
4186104	0.0112289	-0.0443877	-0.0213972
4186114	0.0100378	-0.0464585	-0.0192828
4186124	0.0111102	-0.0506988	-0.0191092
4186134	0.0121816	-0.0538787	-0.0189631
4186144	0.00998449	-0.0570384	-0.0179472
4186154	0.00671792	-0.0591395	-0.0170226
4186164	0.00665772	-0.0612344	-0.015906
4186174	0.00879693	-0.0633514	-0.0157232
4186184	0.0118818	-0.0664744	-0.0133251
4186194	0.0126419	-0.0684618	-0.00789666
4186204	0.0113276	-0.0715404	-0.00363088
4186214	0.0110198	-0.0745904	0.00176072
4186224	0.0116566	-0.0775857	0.00934029
4186234	0.0144293	-0.0784556	0.0169933
4186244	0.0129251	-0.0772123	0.0243353
4186254	0.0112996	-0.0790986	0.0338833
4186264	0.010803	-0.0788876	0.0423787
4186274	0.0134497	-0.0775836	0.0521007
4186284	0.0183635	-0.0826918	0.0599912
4186294	0.0214502	-0.0879359	0.062444
4186304	0.0215726	-0.0858674	0.0602654
4186314	0.0165329	-0.0785851	0.054444
4186324	0.0135057	-0.0701854	0.0508472
4186334	0.0116103	-0.0628705	0.0462799
4186344	0.0107844	-0.0566143	0.041804
4186354	0.0122204	-0.0504066	0.0353323
4186364	0.0147233	-0.0420756	0.0288697
4186374	0.0118815	-0.0326943	0.0220599
4186384	0.00897765	-0.0232866	0.016312
4186394	0.0114822	-0.0170768	0.00990438
4186404	0.0126708	-0.0118245	0.0077076
4186414	0.013799	-0.00866687	0.00662756
4186424	0.0139178	-0.00235569	0.00433958
4186434	0.0129058	0.00397956	0.00304937
4186444	0.0107018	0.009305	0.00384641
4186454	0.0105751	0.0125396	0.00588822
4186464	0.0115782	0.0168105	0.0069046
4186474	0.0146577	0.0200515	0.00913858
4186484	0.0167323	0.0211426	0.0103012
4186494	0.0145302	0.0243466	0.0111529
4186504	0.0135189	0.0296215	0.0098902
4186514	0.0124458	0.0349225	0.00968933
4186524	0.0123173	0.0402783	0.0116763
4186534	0.0121275	0.0446	0.0147526
4186544	0.0109948	0.0467455	0.0156957
4186554	0.00879347	0.0488892	0.0165749
4186564	0.00546026	0.0521175	0.0184245
4186574	0.00237644	0.0541799	0.0160538
4186584	0.00155592	0.0540724	0.0117421
4186594	0.00406408	0.0560395	0.00544381
4186604	0.00324106	0.059114	0.00105011
4186614	-0.00293398	0.0717237	-0.00391018
4186624	-0.00375092	0.0673736	-0.00811243
4186634	0.0112891	0.0493454	-0.00781262
4186644	0.0155652	0.048293	-0.00752926
4186654	0.00701213	0.0514584	-0.00812352
4186664	0.00475216	0.0493858	-0.006073
4186674	0.00890493	0.0473254	-0.00363839
4186684	0.00777495	0.0462891	-0.00261319
4186694	0.00582278	0.0472665	-0.00595427
4186704	0.00600636	0.0503693	-0.00922215
4186714	0.00726032	0.051353	-0.0123712
4186724	0.00870168	0.0511968	-0.0186788
4186734	0.00605226	0.0530746	-0.0284829
4186744	0.00157464	0.0558772	-0.0437521
4186754	-0.00177383	0.0607766	-0.0600737
4186764	-0.00234854	0.0637454	-0.0687155
4186774	-0.00448525	0.0626807	-0.0688161
4186784	-0.0036	0.0595798	-0.0654843
4186794	-0.003968	0.0544349	-0.0589758
4186804	-0.0065366	0.050373	-0.0515609
4186814	-0.00986445	0.0472376	-0.0495471
4186824	-0.0140163	0.0482373	-0.0519544
4186834	-0.0139525	0.0460895	-0.0529616
4186844	-0.0128189	0.0428834	-0.0538774
4186854	-0.0128163	0.0397015	-0.0537953
4186864	-0.0150763	0.0376289	-0.0517448
4186874	-0.0164536	0.0356373	-0.0464444
4186884	-0.017769	0.0336195	-0.0422062
4186894	-0.0181388	0.0305958	-0.0357525
4186904	-0.0172517	0.0253738	-0.0323658
4186914	-0.0151727	0.0211618	-0.0310663
4186924	-0.0131576	0.0190973	-0.0287597
4186934	-0.0142884	0.0191216	-0.0277618
4186944	-0.0218319	0.0191336	-0.0271481
4186954	-0.0240918	0.0170609	-0.0250976
4186964	-0.0188075	0.0139157	-0.0236335
4186974	-0.0155346	0.00859237	-0.0243665
4186984	-0.0154698	0.00538421	-0.0253463
4186994	-0.016662	0.00437403	-0.023259
4187004	-0.0177909	0.00227714	-0.0222064
4187014	-0.0179117	-0.00191271	-0.0199732
4187024	-0.0158317	-0.00718522	-0.0186464
4187034	-0.0125616	-0.00932693	-0.0194615
4187044	-0.0135709	-0.00617337	-0.0206696
4187054	-0.0135717	-0.00511277	-0.0206969
4187064	-0.0115566	-0.007177	-0.0183902
4187074	-0.00847173	-0.0103	-0.0159922
4187084	-0.00519979	-0.0145628	-0.0167526
4187094	-0.00519621	-0.0188054	-0.0166432
4187104	-0.00425088	-0.0198112	-0.0144278
4187114	-0.00104451	-0.019805	-0.0142357
4187124	0.00109661	-0.0240434	-0.0139983
4187134	3.12328e-05	-0.028288	-0.0139529
4187144	-0.00317502	-0.0282942	-0.0141449
4187154	-0.00204241	-0.0304397	-0.015088
4187164	3.38554e-05	-0.0314698	-0.0138707
4187174	-0.00216472	-0.0325084	-0.0129093
4187184	-0.00323164	-0.0346316	-0.0129186
4187194	-2.2769e-05	-0.0378073	-0.0126444
4187204	0.00324821	-0.0410093	-0.0134323
4187214	0.00337422	-0.0431833	-0.0155014
4187224	0.0035001	-0.0453573	-0.0175704
4187234	0.00450957	-0.0485108	-0.0163624
4187244	0.00545669	-0.051638	-0.0140924
4187254	0.00778222	-0.0538342	-0.0170954
4187264	0.00885189	-0.0548928	-0.017004
4187274	0.0118747	-0.0579894	-0.0135441
4187284	0.0137675	-0.0621223	-0.00905871
4187294	0.0167919	-0.0673403	-0.00554419
4187304	0.0187477	-0.0725601	-0.00209343
4187314	0.0208277	-0.0778328	-0.000766635
4187324	0.0208915	-0.0799805	-0.00177383
4187334	0.0190022	-0.08009	-0.00614953
4187344	0.0172992	-0.0802788	-0.0137112
4187354	0.0164185	-0.0824811	-0.0169063
4187364	0.0141568	-0.0824325	-0.0149105
4187373	0.0129007	-0.0812949	-0.011816
4187383	0.011645	-0.0801572	-0.00872159
4187393	0.011583	-0.0801308	-0.00765967
4187403	0.0115199	-0.0790439	-0.00662506
4187413	0.0124637	-0.0779284	-0.00446463
4187423	0.0133444	-0.075726	-0.00126958
4187433	0.0141641	-0.0745579	0.00301468
4187443	0.00932491	-0.0679649	0.0121518
4187453	-0.00438535	-0.0485293	0.0257577
4187463	-0.0166534	-0.0303102	0.0330834
4187473	-0.0101149	-0.0324719	0.0313985
4187483	0.00397694	-0.0463125	0.0294009
4187493	0.0103354	-0.0558194	0.0310934
4187503	0.00920653	-0.0579163	0.0321461
4187513	0.0102708	-0.0526111	0.0320733
4187523	0.0135969	-0.0473545	0.0300045
4187533	0.0138408	-0.0421568	0.02562
4187543	0.0130788	-0.0380481	0.020137
4187553	0.0123152	-0.0318184	0.0145992
4187563	0.0113652	-0.0255092	0.0122471
4187573	0.0103532	-0.0191739	0.010957
4187583	0.0104117	-0.0149577	0.00978565
4187593	0.0104686	-0.00862026	0.00855947
4187603	0.0117209	-0.00551546	0.00535548
4187613	0.0108366	-0.00347519	0.002051
4187623	0.0120889	-0.000370502	-0.00115275
4187633	0.0120871	0.00175083	-0.00120759
4187643	0.0108917	0.00498331	0.000770211
4187653	0.00875401	0.00497913	0.000642061
4187663	0.00774729	0.00495076	-0.000483871
4187673	0.00774467	0.0081327	-0.000566006
4187683	0.0088098	0.0123773	-0.000611424
4187693	0.00993896	0.0144743	-0.00166392
4187703	0.0108837	0.014529	0.000523925
4187713	0.0107586	0.0156425	0.00262034
4187723	0.0128332	0.0167335	0.00378287
4187733	0.013839	0.0178226	0.0048815
4187743	0.0117635	0.0177921	0.00369155
4187753	0.0106957	0.0167295	0.00365484
4187763	0.0117015	0.0178185	0.00475347
4187773	0.0127685	0.0199418	0.00476277
4187783	0.0106903	0.0230932	0.00349069
4187793	0.00754344	0.0262426	0.00215447
4187803	0.00534117	0.0294467	0.00300634
4187813	0.00521529	0.0316206	0.00507534
4187823	0.00634611	0.0315964	0.00407743
4187833	0.0043335	0.030479	0.00185299
4187843	0.00445771	0.0304261	-0.000270844
4187853	0.00445688	0.0314867	-0.000298262
4187863	0.00332522	0.0325718	0.00067234
4187873	0.00219154	0.035778	0.00158811
4187883	0.00105906	0.0379235	0.00253117
4187893	0.00225282	0.0368123	0.000498891
4187903	0.00451624	0.0346423	-0.00144219
4187913	0.00665379	0.0346465	-0.00131416
4187923	0.0044533	0.0357293	-0.000407696
4187933	0.00124443	0.038905	-0.000681996
4187943	0.000298858	0.0399109	-0.00289714
4187953	-0.00046134	0.0418983	-0.00832546
4187963	-9.07183e-05	0.0438614	-0.0147517
4187973	9.64403e-05	0.0427217	-0.0179102
4187983	-0.000785232	0.0415798	-0.0211326
4187993	-0.00179017	0.0394301	-0.0222038
4188003	-0.000720501	0.0383717	-0.0221125
4188013	-0.00179017	0.0394301	-0.0222038
4188023	-0.00172734	0.0383432	-0.0232384
4188033	-0.00279248	0.0340986	-0.0231929
4188043	-0.00159872	0.0329874	-0.0252254
4188053	-0.000404	0.0308154	-0.0272305
4188063	0.00079155	0.0275828	-0.0292082
4188073	0.000918269	0.0243483	-0.0312499
4188083	-0.000396967	0.0223303	-0.0270115
4188093	-0.00284123	0.0182154	-0.0217205
4188103	-0.00308692	0.0151391	-0.0173907
4188113	-0.00107098	0.012014	-0.0150567
4188123	-6.33001e-05	0.0109818	-0.0139034
4188133	-0.00113201	0.0109798	-0.0139674
4188143	-0.00232065	0.00572729	-0.0117707
4188153	-0.00237823	0.000450373	-0.010572
4188163	-0.00243771	-0.0027051	-0.00942791
4188173	-0.00350642	-0.00270712	-0.00949192
4188183	-0.00143278	-0.000555396	-0.00835669
4188193	0.0007056	-0.00161195	-0.00820136
4188203	0.00177979	-0.00797367	-0.00797307
4188213	0.00178421	-0.0132768	-0.00783634
4188223	0.00172389	-0.0153718	-0.00671959
4188233	0.00279176	-0.014309	-0.00668287
4188243	0.00172126	-0.0121899	-0.00680172
4188253	0.000716209	-0.0143396	-0.00787294
4188263	0.000718832	-0.0175214	-0.0077908
4188273	0.00285637	-0.0175172	-0.00766265
4188283	0.00612581	-0.0185982	-0.00850523
4188293	0.00713408	-0.0206909	-0.00732458
4188303	0.00392962	-0.0228184	-0.00746179
4188313	0.0018568	-0.0260308	-0.00856984
4188323	0.00179565	-0.027065	-0.0074805
4188333	0.00500274	-0.0281196	-0.00726104
4188343	0.00613189	-0.0260226	-0.00831366
4188353	0.00637937	-0.0250674	-0.0125886
4188363	0.00644219	-0.0261544	-0.0136234
4188373	0.00650609	-0.0283021	-0.0146306
4188383	0.00644493	-0.0293363	-0.0135412
4188393	0.00519073	-0.0303198	-0.010392
4188403	0.00292909	-0.0302712	-0.00839615
4188413	0.000852823	-0.0292411	-0.00961363
4188423	0.00192165	-0.0292391	-0.00954962
4188433	0.0029912	-0.0302975	-0.00945807
4188443	0.00418496	-0.0314089	-0.0114906
4188453	0.00531495	-0.0303726	-0.0125158
4188463	0.00512874	-0.0302935	-0.00933003
4188473	0.00393498	-0.0291822	-0.00729764
4188483	0.00393581	-0.0302428	-0.00727022
4188493	0.00387466	-0.0312771	-0.006181
4188503	0.00494337	-0.031275	-0.00611699
4188513	0.0070188	-0.0312445	-0.00492704
4188523	0.00802648	-0.0322767	-0.00377369
4188533	0.00796521	-0.033311	-0.00268447
4188543	0.00677049	-0.031139	-0.000679374
4188553	0.00683093	-0.0290442	-0.00179601
4188563	0.00582242	-0.0269513	-0.00297666
4188573	0.00789797	-0.0269208	-0.00178671
4188583	0.0100355	-0.0269166	-0.00165856
4188593	0.00997162	-0.0247691	-0.00065136
4188603	0.00663936	-0.0226014	0.00122559
4188613	0.00556886	-0.0204822	0.00110674
4188623	0.00449741	-0.0173023	0.000960708
4188633	0.00550234	-0.0151526	0.00203192
4188643	0.00330269	-0.0151303	0.00296581
4188653	0.00342524	-0.0130618	0.000787139
4188663	0.00367165	-0.0110459	-0.00351524
4188673	0.00266314	-0.00895309	-0.00469589
4188683	0.00260019	-0.00786602	-0.00366127
4188693	0.0014677	-0.00572062	-0.00271833
4188703	0.000334978	-0.00357497	-0.00177515
4188713	0.00253558	-0.00465786	-0.00268149
4188723	0.00467396	-0.00571442	-0.00252616
4188733	0.00561774	-0.00459909	-0.000365615
4188743	0.00674856	-0.00462329	-0.00136352
4188753	0.00794148	-0.00467396	-0.00342333
4188763	0.00699508	-0.00260746	-0.0056659
4188773	0.00693381	-0.00364161	-0.00457668
4188783	0.00687087	-0.00255466	-0.00354207
4188793	0.00787771	-0.00252628	-0.00241613
4188803	0.00567627	-0.0003829	-0.00153697
4188813	0.00567448	0.00173843	-0.0015918
4188823	0.00561237	0.00176477	-0.000529885
4188833	0.00668025	0.00282753	-0.000493169
4188843	0.00567365	0.00279903	-0.0016191
4188853	0.00573575	0.00277269	-0.00268102
4188863	0.00573575	0.00277269	-0.00268102
4188873	0.00674319	0.00174057	-0.00152779
4188883	0.00686729	0.00168788	-0.00365162
4188893	0.00686729	0.00168788	-0.00365162
4188903	0.00680447	0.00277483	-0.002617
4188913	0.0066793	0.00388813	-0.000520587
4188923	0.00673974	0.00598311	-0.00163722
4188933	0.00680089	0.00701737	-0.00272644
4188943	0.00667667	0.00707006	-0.000602603
4188953	0.00762057	0.00818551	0.00155783
4188963	0.00661385	0.00815701	0.000431895
4188973	0.00466251	0.00807381	-0.00288188
4188983	0.00472355	0.00910807	-0.00397122
4188993	0.00673616	0.0102257	-0.00174665
4189003	0.00667489	0.00919127	-0.000657439
4189013	0.00573218	0.00701523	-0.00279045
4189023	0.00365758	0.00592422	-0.0039531
4189033	0.0026499	0.00695646	-0.00510633
4189043	0.00252497	0.00806975	-0.00300992
4189053	0.00346863	0.00918508	-0.000849485
4189063	0.0045383	0.0081265	-0.000758052
4189073	0.00573134	0.00807583	-0.00281787
4189083	0.00673974	0.00598311	-0.00163722
4189093	0.00567007	0.00704157	-0.00172853
4189103	0.00353253	0.00703752	-0.00185657
4189113	0.00359559	0.00595057	-0.00289118
4189123	0.00246549	0.00491416	-0.00186586
4189133	0.00139499	0.00703335	-0.00198472
4189143	0.000388265	0.00700498	-0.00311065
4189153	0.00372052	0.00483716	-0.0049876
4189163	0.00372231	0.00271595	-0.00493288
4189173	0.00164771	0.0016247	-0.00609565
4189183	-0.0016216	0.00270569	-0.00525308
4189193	-0.00168371	0.00273204	-0.00419116
4189203	-0.00269043	0.00270355	-0.00531709
4189213	-0.00262749	0.00161648	-0.00635171
4189223	-0.00155866	0.00161862	-0.00628769
4189233	0.00259483	-0.00150228	-0.00382555
4189243	0.00467217	-0.00359309	-0.00258088
4189253	0.00259757	-0.00468421	-0.00374341
4189263	-0.0015533	-0.00474524	-0.00612342
4189273	-0.00356591	-0.00586271	-0.00834799
4189283	-0.00356507	-0.00692332	-0.00832057
4189293	-0.00249457	-0.00904262	-0.00820184
4189303	0.00172043	-0.0111293	-0.00682914
4189313	0.00278914	-0.0111271	-0.00676501
4189323	0.000712752	-0.010097	-0.00798237
4189333	-0.00368381	-0.0132344	-0.00603259
4189343	-0.00481474	-0.0132099	-0.00503469
4189353	-0.00374687	-0.0121473	-0.00499797
4189363	-0.000478506	-0.0121676	-0.00586784
4189373	0.00178504	-0.0143375	-0.00780892
4189383	0.000717044	-0.0154002	-0.00784552
4189393	-0.000411987	-0.0174971	-0.0067929
4189403	-0.000286937	-0.0186105	-0.00888944
4189413	0.000905991	-0.0186611	-0.0109493
4189423	-0.00028789	-0.0175498	-0.00891674
4189433	-0.00248659	-0.0185883	-0.00795555
4189443	-0.00141776	-0.0185862	-0.00789154
4189453	0.00166619	-0.0206486	-0.00552094
4189463	0.0027349	-0.0206465	-0.00545681
4189473	0.000784516	-0.0217903	-0.00874329
4189483	-0.0023607	-0.0207622	-0.0100247
4189493	-0.00135481	-0.0196731	-0.00892603
4189503	0.000784516	-0.0217903	-0.00874329
4189513	0.000786304	-0.0239116	-0.00868857
4189523	0.00179386	-0.0249438	-0.00753522
4189533	0.00387025	-0.0259739	-0.00631785
4189543	0.00481653	-0.0280404	-0.00407529
4189553	0.00362551	-0.030111	-0.00196064
4189563	0.00325477	-0.0320741	0.00446558
4189573	0.0039537	-0.0350957	0.0109832
4189583	0.004776	-0.0371095	0.0153497
4189593	0.00458801	-0.0349091	0.0184807
4189603	0.00333214	-0.0337714	0.0215751
4189613	0.00113249	-0.0337491	0.022509
4189623	-0.00207305	-0.0348159	0.0223441
4189633	-0.00207222	-0.0358766	0.0223715
4189643	0.000125885	-0.0337776	0.0213829
4189653	0.00125575	-0.0327413	0.0203577
4189663	0.00131786	-0.0327677	0.0192958
4189673	0.00244784	-0.0317314	0.0182706
4189683	0.00363982	-0.0307213	0.0161834
4189693	0.00382519	-0.0297399	0.0129703
4189703	0.0038873	-0.0297662	0.0119084
4189713	0.00489223	-0.0276166	0.0129795
4189723	0.0037595	-0.025471	0.0139227
4189733	0.00262785	-0.0243859	0.0148933
4189743	0.00595653	-0.0223113	0.0129068
4189753	0.00815535	-0.0212729	0.0119455
4189763	0.00714767	-0.0202407	0.0107921
4189773	0.00406206	-0.016057	0.00836682
4189783	0.00317776	-0.014017	0.00506222
4189793	0.00437057	-0.0140676	0.00300241
4189803	0.00550067	-0.0130312	0.00197709
4189813	0.00757515	-0.0119401	0.00313973
4189823	0.00644338	-0.0108552	0.00411022
4189833	0.00757253	-0.00875831	0.0030576
4189843	0.00763285	-0.00666332	0.00194097
4189853	0.00882399	-0.0045929	-0.000173569
4189863	0.00800085	-0.00151837	-0.00456738
4189873	0.00800085	-0.00151837	-0.00456738
4189883	0.00686908	-0.000433445	-0.00359678
4189893	0.00674498	-0.000380754	-0.00147295
4189903	0.00655794	0.000759006	0.00168538
4189913	0.00643277	0.00187242	0.0037818
4189923	0.00542617	0.00184393	0.00265586
4189933	0.00655615	0.00288033	0.00163066
4189943	0.00875401	0.00497913	0.000642061
4189953	0.009884	0.00601566	-0.000383139
4189963	0.0110158	0.00493062	-0.00135362
4189973	0.00887728	0.00598717	-0.00150919
4189983	0.00774467	0.0081327	-0.000566006
4189993	0.00560617	0.00918913	-0.000721455
4190003	0.00566924	0.00810218	-0.00175595
4190013	0.00567102	0.00598097	-0.00170124
4190023	0.00454009	0.00600529	-0.000703335
4190033	0.00673878	0.00704372	-0.00166452
4190043	0.00893664	0.00914264	-0.00265324
4190053	0.0110743	0.00914681	-0.00252509
4190063	0.00981927	0.00922382	0.000596642
4190073	0.00768173	0.00921965	0.000468493
4190083	0.00566924	0.00810218	-0.00175595
4190093	0.00579333	0.00804949	-0.00387979
4190103	0.00585186	0.0122657	-0.00505114
4190113	0.000562191	0.0217746	-0.00667953
4190123	-0.00157273	0.0185887	-0.00672555
4190133	0.0015173	0.00910187	-0.00416338
4190143	0.00573397	0.0048939	-0.00273573
4190153	0.00585806	0.00484121	-0.00485957
4190163	0.00371969	0.00589788	-0.00501502
4190173	0.00252581	0.00700915	-0.0029825
4190183	0.00466335	0.0070132	-0.00285447
4190193	0.00585628	0.00696254	-0.00491428
4190203	0.00591934	0.00587547	-0.0059489
4190213	0.00592101	0.00375414	-0.00589418
4190223	0.00491524	0.00266516	-0.0069927
4190233	0.0047884	0.00589991	-0.004951
4190243	0.00686204	0.00805163	-0.00381577
4190253	0.00793266	0.00593245	-0.00369704
4190263	0.00894201	0.00277889	-0.00248897
4190273	0.00793612	0.00168991	-0.0035876
4190283	0.00466692	0.00277066	-0.00274503
4190293	0.00353432	0.00491619	-0.00180185
4190303	0.00460386	0.00385761	-0.00171053
4190313	0.00359821	0.00276864	-0.00280905
4190323	0.00259042	0.00380087	-0.0039624
4190333	0.00259042	0.00380087	-0.0039624
4190343	0.00259042	0.00380087	-0.0039624
4190353	0.00258958	0.00486147	-0.0039897
4190363	0.00252843	0.00382721	-0.00290048
4190373	0.00353694	0.00173438	-0.00171983
4190383	0.0056771	-0.00144351	-0.00150967
4190393	0.00473416	-0.00361943	-0.0036428
4190403	0.00272083	-0.0036763	-0.00589466
4190413	0.00171423	-0.00370479	-0.00702071
4190423	0.00152791	-0.00362563	-0.00383496
4190433	0.000397086	-0.00360131	-0.00283706
4190443	-0.00167751	-0.00469244	-0.00399959
4190453	-0.00161457	-0.00577939	-0.00503421
4190463	-0.00161374	-0.00683999	-0.00500679
4190473	-0.00274467	-0.00681579	-0.00400889
4190483	-0.00393748	-0.00676513	-0.00194907
4190493	-0.00179815	-0.00888228	-0.00176632
4190503	-0.000603557	-0.0110542	-0.00377142
4190513	-0.00267899	-0.0110847	-0.00496137
4190523	-0.00381064	-0.00999975	-0.00399077
4190533	-0.00381064	-0.00999975	-0.00399077
4190543	-0.00255477	-0.0111375	-0.0070852
4190553	-0.00148594	-0.0111353	-0.00702119
4190563	-0.000417233	-0.0111333	-0.00695717
4190573	-0.00148594	-0.0111353	-0.00702119
4190583	-0.00255561	-0.0100769	-0.0071125
4190593	-0.00267899	-0.0110847	-0.00496137
4190603	-0.00167143	-0.0121168	-0.00380802
4190613	-0.00179636	-0.0110035	-0.00171161
4190623	-0.00381064	-0.00999975	-0.00399077
4190633	-0.00161099	-0.0100219	-0.00492465
4190642	0.00159621	-0.0110765	-0.00470531
4190652	0.000591278	-0.0132262	-0.00577652
4190662	-0.000351787	-0.0154022	-0.00790954
4190672	-0.000413775	-0.0153759	-0.00684762
4190682	0.000592113	-0.0142869	-0.00574911
4190692	0.00266755	-0.0142562	-0.00455904
4190702	0.000469685	-0.0163553	-0.00357056
4190712	0.000345588	-0.0163026	-0.00144672
4190722	0.000344634	-0.015242	-0.00147402
4190732	0.0003438	-0.0141814	-0.00150144
4190742	0.00128853	-0.0141267	0.000686407
4190752	0.00342786	-0.0162437	0.000869274
4190762	0.00462246	-0.0184157	-0.00113583
4190772	0.00254607	-0.0173854	-0.00235307
4190782	0.000344634	-0.015242	-0.00147402
4190792	-0.00286257	-0.0141876	-0.00169349
4190802	-0.00185406	-0.0162803	-0.000512838
4190812	0.000222325	-0.0173105	0.000704527
4190822	0.00129032	-0.0162479	0.000741124
4190832	0.00128853	-0.0141267	0.000686407
4190842	0.000219703	-0.0141287	0.000622392
4190852	-0.00405979	-0.00883377	0.000229478
4190862	-0.0129302	0.00294864	0.00472581
4190872	-0.00970244	-0.00614059	0.0232809
4190882	0.000335574	-0.0287136	0.0543213
4190892	0.00866342	-0.0429903	0.077581
4190902	0.00790143	-0.0388815	0.0720978
4190912	0.00492024	-0.0277766	0.0492402
4190922	0.004017	-0.019823	0.0276548
4190932	0.00463331	-0.0147835	0.0168989
4190942	0.00695539	-0.0127372	0.0137863
4190952	0.00808525	-0.0117009	0.0127611
4190962	0.00820851	-0.010693	0.0106099
4190972	0.00512469	-0.00863063	0.00823927
4190982	0.00204062	-0.00656819	0.00586855
4190992	0.002226	-0.00558662	0.00265539
4191002	0.00561857	-0.0056597	-0.000338316
4191012	0.00681067	-0.00464964	-0.00242543
4191022	0.00574017	-0.00253046	-0.00254416
4191032	0.00467134	-0.00253248	-0.00260818
4191042	0.00378704	-0.000492454	-0.00591266
4191052	0.00384831	0.000541806	-0.007002
4191062	0.00372314	0.00165534	-0.00490558
4191072	0.00573659	0.00171208	-0.00265372
4191082	0.0066793	0.00388813	-0.000520587
4191092	0.008816	0.00495279	-0.000419855
4191102	0.00774729	0.00495076	-0.000483871
4191112	0.00567269	0.00385964	-0.00164652
4191122	0.00359726	0.00382924	-0.00283647
4191132	0.00252843	0.00382721	-0.00290048
4191142	0.00365841	0.0048635	-0.00392568
4191152	0.00478745	0.00696051	-0.0049783
4191162	0.003654	0.0101668	-0.00406253
4191172	0.00460041	0.00810015	-0.00181997
4191182	0.00667763	0.00600946	-0.000575304
4191192	0.00573313	0.00595462	-0.00276315
4191202	0.00365484	0.00910604	-0.00403523
4191212	0.00151563	0.0112232	-0.0042181
4191222	0.00258517	0.0101647	-0.00412655
4191232	0.00484776	0.00905526	-0.00609505
4191242	0.00497019	0.0111239	-0.0082736
4191252	0.00270677	0.0132937	-0.00633252
4191262	0.00157499	0.0143787	-0.00536203
4191272	-0.00270104	0.0154312	-0.00564551
4191282	-0.00716233	0.015502	-0.00271595
4191292	-0.00716233	0.015502	-0.00271595
4191302	-0.00395596	0.0155082	-0.00252378
4191312	-0.00175631	0.015486	-0.00345767
4191322	-0.00288546	0.0133889	-0.00240505
4191332	-0.00395238	0.0112656	-0.00241435
4191342	-0.00275958	0.011215	-0.00447416
4191352	-0.0026958	0.0090673	-0.00548136
4191362	-0.00376272	0.00694406	-0.00549054
4191372	-0.00376177	0.00588346	-0.00546324
4191382	-0.00275433	0.0048511	-0.00430989
4191392	-0.00168467	0.00379264	-0.00421858
4191402	-0.00375736	0.000580192	-0.00532639
4191412	-0.00583017	-0.00263226	-0.00643432
4191422	-0.00589144	-0.0036664	-0.00534511
4191432	-0.00595355	-0.00364006	-0.00428319
4191442	-0.00695932	-0.00472915	-0.0053817
4191452	-0.00802815	-0.00473118	-0.00544572
4191462	-0.00802732	-0.00579178	-0.00541842
4191472	-0.00689554	-0.00687683	-0.0063889
4191482	-0.00463212	-0.00904667	-0.00832987
4191492	-0.00242984	-0.0122508	-0.00918162
4191502	-0.00142312	-0.0122223	-0.00805569
4191512	-0.00475359	-0.0121758	-0.0061239
4191522	-0.0068264	-0.0153883	-0.00723183
4191532	-0.00669873	-0.0196835	-0.00924623
4191542	-0.00669956	-0.0186229	-0.00927365
4191552	-0.0067023	-0.0154409	-0.00935566
4191562	-0.00676525	-0.014354	-0.00832117
4191572	-0.00783408	-0.014356	-0.00838518
4191582	-0.0121729	-0.0122166	-0.00763404
4191592	-0.0112292	-0.0111011	-0.00547361
4191602	-0.00695229	-0.0132141	-0.00516284
4191612	-0.00588	-0.0174546	-0.00498927
4191622	-0.00588	-0.0174546	-0.00498927
4191632	-0.00588	-0.0174546	-0.00498927
4191642	-0.00688577	-0.0185438	-0.0060879
4191652	-0.00902331	-0.0185479	-0.00621593
4191662	-0.0102147	-0.0206184	-0.0041014
4191672	-0.0081985	-0.0237435	-0.0017674
4191682	-0.00618148	-0.0279293	0.000593901
4191692	-0.00428963	-0.0310014	0.00505185
4191702	-0.00466025	-0.0329646	0.0114782
4191712	-0.00546551	-0.0347431	0.0253378
4191722	-0.00639474	-0.0364689	0.0413215
4191732	-0.00676382	-0.0405532	0.0478024
4191742	-0.00550699	-0.0427516	0.0447354
4191752	-0.00519669	-0.0428833	0.0394258
4191762	-0.00394166	-0.0429603	0.0363041
4191772	-0.00274956	-0.0419503	0.0342169
4191782	-0.00388038	-0.041926	0.0352148
4191792	-0.00412965	-0.0407599	0.0394351
4191802	-0.00437796	-0.0406545	0.0436828
4191812	-0.00337124	-0.0406262	0.0448087
4191822	-0.00110769	-0.042796	0.0428677
4191832	0.000148177	-0.0439335	0.0397735
4191842	0.00247097	-0.042948	0.0366883
4191852	0.00347602	-0.0407984	0.0377595
4191862	0.00441968	-0.0396827	0.03992
4191872	0.00548935	-0.0407414	0.0400114
4191882	0.00567472	-0.0397599	0.0367982
4191892	0.00478947	-0.0366592	0.0334665
4191902	0.00377929	-0.0324452	0.032231
4191912	0.00390077	-0.0293159	0.030025
4191922	0.00295615	-0.0293707	0.0278372
4191932	0.00307941	-0.0283629	0.0256859
4191942	0.00433087	-0.0241973	0.0224547
4191952	0.0044533	-0.0221289	0.0202762
4191962	0.00457561	-0.0200603	0.0180975
4191972	0.00689769	-0.018014	0.0149851
4191982	0.00808966	-0.017004	0.012898
4191992	0.00814998	-0.0149091	0.0117813
4192002	0.00714064	-0.0117556	0.0105733
4192012	0.00720108	-0.00966072	0.00945663
4192022	0.00839293	-0.0086509	0.00736928
4192032	0.010716	-0.00766504	0.00428438
4192042	0.0129777	-0.00771368	0.00228858
4192052	0.011971	-0.00774217	0.00116265
4192062	0.01197	-0.00668156	0.00113523
4192072	0.00983083	-0.0045644	0.000952482
4192082	0.00763118	-0.00454211	0.00188625
4192092	0.00763023	-0.00348139	0.00185883
4192102	0.0119684	-0.00456035	0.00108051
4192112	0.0152988	-0.00460684	-0.000851274
4192122	0.0164279	-0.00250983	-0.00190389
4192132	0.0154194	-0.000416994	-0.00308454
4192142	0.0132198	-0.000394821	-0.00215065
4192152	0.0101384	-0.0015142	-0.00443923
4192162	0.00806129	0.000576377	-0.00568402
4192172	0.00906694	0.00166559	-0.0045855
4192182	0.0100737	0.00169408	-0.00345945
4192192	0.0121492	0.00172448	-0.00226951
4192202	0.0110184	0.0017488	-0.00127161
4192212	0.0101358	0.00166774	-0.00452137
4192222	0.0102582	0.00373614	-0.00669992
4192232	0.0101331	0.00484955	-0.00460339
4192242	0.00894022	0.0049001	-0.00254369
4192252	0.00900304	0.00381315	-0.00357831
4192262	0.0079335	0.00487173	-0.00366962
4192272	0.00686383	0.00593042	-0.00376105
4192282	0.00573218	0.00701523	-0.00279045
4192292	0.00680089	0.00701737	-0.00272644
4192302	0.00793171	0.00699306	-0.00372434
4192312	0.00793171	0.00699306	-0.00372434
4192322	0.00793266	0.00593245	-0.00369704
4192332	0.00893843	0.00702143	-0.0025984
4192342	0.00899863	0.00911629	-0.00371516
4192352	0.00591493	0.0111786	-0.00608575
4192362	0.00377905	0.00905323	-0.00615907
4192372	0.0026499	0.00695646	-0.00510633
4192382	0.00365484	0.00910604	-0.00403523
4192392	0.00585365	0.0101445	-0.00499642
4192402	0.00811625	0.00903511	-0.00696492
4192412	0.00598049	0.00690973	-0.00703812
4192422	0.00478745	0.00696051	-0.0049783
4192432	0.00466156	0.00913441	-0.0029093
4192442	0.003654	0.0101668	-0.00406253
4192452	0.00478482	0.0101424	-0.00506043
4192462	0.00591493	0.0111786	-0.00608575
4192472	0.00698364	0.0111808	-0.00602174
4192482	0.00685847	0.0122942	-0.0039252
4192492	0.00472009	0.0133506	-0.00408065
4192502	0.00371349	0.0133222	-0.00520658
4192512	0.00270581	0.0143543	-0.00635982
4192522	0.0026437	0.0143808	-0.0052979
4192532	0.00358939	0.0133749	-0.00308275
4192542	0.00459599	0.0134033	-0.00195682
4192552	0.00359023	0.0123143	-0.00305533
4192562	0.00377738	0.0111746	-0.00621378
4192572	0.000695109	0.0111157	-0.00852978
4192582	-0.00565541	0.0110769	-0.00997591
4192592	-0.00577784	0.00900829	-0.00779736
4192602	-0.00168633	0.00591397	-0.0042733
4192612	0.00258875	0.0059222	-0.00401711
4192622	0.00271201	0.00692999	-0.00616825
4192632	0.0016433	0.00692785	-0.00623238
4192642	-0.000556469	0.00695026	-0.0052985
4192652	-0.0016855	0.00485325	-0.00424588
4192662	-0.000678778	0.00488162	-0.00311995
4192672	0.00158381	0.00377238	-0.00508845
4192682	0.00170982	0.00159836	-0.00715756
4192692	-0.00048995	0.00162065	-0.00622368
4192702	-0.000616789	0.00485528	-0.00418186
4192712	-0.00294054	0.00493014	-0.00112414
4192722	-0.00394535	0.00278056	-0.00219536
4192732	-0.00275075	0.000608563	-0.00420046
4192742	-0.00262487	-0.00156546	-0.00626957
4192752	-0.00155509	-0.00262392	-0.00617814
4192762	0.000520349	-0.0025934	-0.00498819
4192772	-0.000549436	-0.00153482	-0.00507963
4192782	-0.000487328	-0.00156128	-0.00614154
4192792	0.000644565	-0.00264621	-0.00711203
4192802	0.000583291	-0.00368047	-0.00602281
4192812	0.000586867	-0.00792301	-0.00591326
4192822	0.000463486	-0.00893092	-0.00376213
4192832	0.00260103	-0.00892675	-0.00363398
4192842	0.00272703	-0.0111008	-0.00570309
4192852	0.000590324	-0.0121655	-0.00580382
4192862	-0.00148594	-0.0111353	-0.00702119
4192872	-0.000418067	-0.0100727	-0.00698447
4192882	-0.000419855	-0.00795138	-0.00703919
4192892	-0.000357866	-0.00797772	-0.00810111
4192902	0.00177979	-0.00797367	-0.00797307
4192912	0.00498688	-0.0090282	-0.00775361
4192922	0.00486457	-0.0110967	-0.00557506
4192932	0.0037967	-0.0121593	-0.00561166
4192942	0.00285292	-0.0132747	-0.00777221
4192952	0.00278997	-0.0121877	-0.00673759
4192962	0.000467896	-0.0142341	-0.00362527
4192972	0.000407696	-0.0163289	-0.00250864
4192982	0.0047456	-0.0174077	-0.00328696
4192992	0.00706685	-0.0143008	-0.00642681
4193002	0.00926459	-0.0122018	-0.00741541
4193012	0.00593519	-0.0132159	-0.00545633
4193022	0.00468016	-0.0131388	-0.00233459
4193032	0.00788653	-0.0131326	-0.00214255
4193042	0.0100223	-0.0110072	-0.00206912
4193052	0.0110903	-0.00994456	-0.0020324
4193062	0.0111513	-0.0089103	-0.00312173
4193072	0.0112737	-0.00684178	-0.00530028
4193082	0.0100799	-0.00573039	-0.00326788
4193092	0.00894904	-0.00570619	-0.0022701
4193102	0.00794148	-0.00467396	-0.00342333
4193112	0.0102023	-0.00366187	-0.00544643
4193122	0.0133466	-0.00362933	-0.00419247
4193132	0.0142912	-0.00357449	-0.00200462
4193142	0.0141661	-0.00246119	9.19104e-05
4193152	0.0142291	-0.00354815	-0.000942707
4193162	0.0122148	-0.0025444	-0.00322187
4193172	0.0110202	-0.000372529	-0.00121677
4193182	0.0120853	0.00387204	-0.00126231
4193192	0.0130868	0.0102643	-0.000300527
4193202	0.0140278	0.0145617	0.00177789
4193212	0.014027	0.0156224	0.00175047
4193222	0.0140262	0.016683	0.00172305
4193232	0.0161619	0.0188082	0.00179636
4193242	0.0161601	0.0209296	0.00174165
4193252	0.0161575	0.0241114	0.00165951
4193262	0.014019	0.0251681	0.00150418
4193272	0.0128244	0.0273398	0.00350928
4193282	0.0128838	0.0304954	0.00236523
4193292	0.0109919	0.0335678	-0.0020926
4193302	0.0102929	0.0365894	-0.00861013
4193312	0.0107248	0.0395868	-0.0161258
4193322	0.0112196	0.0414971	-0.0246758
4193332	0.0117161	0.0412861	-0.0331712
4193342	0.0130945	0.042217	-0.0384443
4193352	0.0132169	0.0442855	-0.0406228
4193362	0.0143467	0.0453218	-0.0416481
4193372	0.0122092	0.0453178	-0.0417762
4193382	0.0101959	0.0452609	-0.0440282
4193392	0.0101942	0.0473822	-0.0440829
4193402	0.0133375	0.0484754	-0.0428561
4193412	0.015475	0.0484794	-0.0427281
4193422	0.010195	0.0463215	-0.0440555
4193432	0.00598192	0.0462868	-0.0453734
4193442	0.00591815	0.0484346	-0.0443662
4193452	0.00585425	0.0505822	-0.043359
4193462	0.00371766	0.0495174	-0.0434599
4193472	0.00372207	0.0442142	-0.043323
4193482	0.00466835	0.0421479	-0.0410804
4193492	0.004421	0.0411927	-0.0368052
4193502	0.00316513	0.0423303	-0.033711
4193512	0.000966311	0.0412918	-0.0327497
4193522	0.00197482	0.0391991	-0.031569
4193532	0.00191271	0.0392255	-0.0305071
4193542	0.000843883	0.0392234	-0.0305711
4193552	0.000782728	0.0381892	-0.0294819
4193562	0.00179207	0.0350356	-0.0282738
4193572	0.000662923	0.0329387	-0.0272212
4193582	-0.00147641	0.0350558	-0.027404
4193592	-0.00135386	0.0371243	-0.0295825
4193602	-0.00135386	0.0371243	-0.0295825
4193612	-0.00455749	0.0339363	-0.0296925
4193622	-0.00474107	0.0308334	-0.0264248
4193632	-0.00272691	0.0298297	-0.0241454
4193642	-0.00172031	0.0298581	-0.0230194
4193652	-0.00171936	0.0287975	-0.022992
4193662	-0.00278628	0.0266742	-0.0230013
4193672	-0.00290775	0.0235449	-0.0207955
4193682	-0.00510478	0.0203853	-0.0197796
4193692	-0.00623298	0.0172278	-0.0186995
4193702	-0.00522447	0.0151349	-0.0175189
4193712	-0.00433838	0.0109736	-0.0141594
4193722	-0.00232422	0.00996983	-0.0118802
4193732	-0.0013777	0.00790334	-0.00963759
4193742	-0.00149918	0.00477409	-0.00743163
4193752	-0.00256622	0.00265074	-0.00744092
4193762	-0.0025034	0.00156379	-0.00847554
4193772	-0.000301957	-0.000579715	-0.00935459
4193782	0.00290704	-0.00375533	-0.00908041
4193792	0.00278389	-0.00476336	-0.00692916
4193802	0.000645399	-0.00370681	-0.00708473
4193812	-0.00149119	-0.00477159	-0.00718534
4193822	-0.00249803	-0.00480008	-0.00831127
4193832	-0.00368917	-0.00687063	-0.00619674
4193842	-0.00161278	-0.0079006	-0.00497937
4193852	-0.00155067	-0.00792706	-0.00604129
4193862	-0.000357866	-0.00797772	-0.00810111
4193872	-0.000232816	-0.00909114	-0.0101976
4193882	-0.000169873	-0.0101781	-0.0112321
4193892	0.00090158	-0.0133579	-0.0110861
4193902	0.00197124	-0.0144166	-0.0109947
4193912	0.00410962	-0.015473	-0.0108391
4193921	0.00291848	-0.0175436	-0.00872457
4193931	0.00285816	-0.0196385	-0.00760794
4193941	0.00386679	-0.0217314	-0.00642729
4193951	0.00386679	-0.0217314	-0.00642729
4193961	0.00273669	-0.0227678	-0.00540197
4193971	0.00374341	-0.0227393	-0.00427604
4193981	0.00594306	-0.0227617	-0.00520992
4193991	0.00939679	-0.0218002	-0.00929296
4194001	0.00832713	-0.0207416	-0.00938439
4194011	0.00832891	-0.0228629	-0.00932956
4194021	0.010407	-0.0260142	-0.00805748
4194031	0.00933909	-0.027077	-0.00809419
4194041	0.00820649	-0.0249314	-0.00715101
4194051	0.00814366	-0.0238445	-0.00611651
4194061	0.0090872	-0.022729	-0.00395596
4194071	0.00896406	-0.023737	-0.00180483
4194081	0.0089649	-0.0247976	-0.00177741
4194091	0.0100319	-0.0226742	-0.00176799
4194101	0.0111008	-0.0226722	-0.00170398
4194111	0.00896406	-0.023737	-0.00180483
4194121	0.00682557	-0.0226804	-0.00196016
4194131	0.00801671	-0.0206097	-0.00407481
4194141	0.0123531	-0.0195674	-0.00490785
4194151	0.0123531	-0.0195674	-0.00490785
4194161	0.0101534	-0.019545	-0.00397396
4194171	0.00795293	-0.0184622	-0.00306761
4194181	0.00675559	-0.0131083	-0.00114465
4194191	0.00681591	-0.0110134	-0.00226128
4194201	0.00788391	-0.00995076	-0.00222456
4194211	0.00901365	-0.00891447	-0.00324988
4194221	0.0102059	-0.00790441	-0.00533688
4194231	0.0090102	-0.00467193	-0.00335932
4194241	0.0077517	-0.000352383	-0.000347018
4194251	0.00668204	0.000706196	-0.000438452
4194261	0.0068053	0.00171423	-0.0025897
4194271	0.00686729	0.00168788	-0.00365162
4194281	0.00787508	0.000655532	-0.00249827
4194291	0.00994956	0.00174677	-0.00133562
4194301	0.00881517	0.00601351	-0.000447273
4194311	0.00673699	0.00916493	-0.00171936
4194321	0.00572872	0.0112578	-0.0029
4194331	0.00459862	0.0102215	-0.00187469
4194341	0.00560617	0.00918913	-0.000721455
4194351	0.00667489	0.00919127	-0.000657439
4194361	0.00667489	0.00919127	-0.000657439
4194371	0.00654817	0.012426	0.00138438
4194381	0.004408	0.0156038	0.00117421
4194391	0.00340056	0.0166359	2.08616e-05
4194401	0.00459242	0.0176458	-0.00206625
4194411	0.00559831	0.0187348	-0.000967741
4194421	0.00553632	0.0187612	9.41753e-05
4194431	0.00440538	0.0187856	0.00109208
4194441	0.00119817	0.0198401	0.000872612
4194451	0.000249028	0.0250884	-0.00145209
4194461	0.00143945	0.0282196	-0.00359404
4194471	0.00156355	0.0281669	-0.00571787
4194481	0.000681877	0.0270251	-0.00894022
4194491	0.000804305	0.0290937	-0.0111188
4194501	-0.00121093	0.0311581	-0.0134255
4194511	-0.00417256	0.035289	-0.0179747
4194521	-0.00594294	0.0414904	-0.0246385
4194531	-0.00557494	0.0466354	-0.0311469
4194541	-0.00633419	0.0475622	-0.0365479
4194551	-0.00853384	0.0475844	-0.035614
4194561	-0.00985003	0.0466272	-0.0314029
4194571	-0.00978613	0.0444796	-0.0324101
4194581	-0.0107911	0.0423299	-0.0334814
4194591	-0.0129899	0.0412915	-0.0325202
4194601	-0.0119832	0.0413198	-0.0313942
4194611	-0.0053817	0.0380713	-0.0341138
4194621	0.0002141	0.0337337	-0.0379318
4194631	0.000277042	0.0326467	-0.0389664
4194641	-0.00204575	0.0316609	-0.0358812
4194651	-0.00229323	0.0307058	-0.0316062
4194661	-0.00147104	0.028692	-0.0272397
4194671	-0.00379479	0.0287671	-0.024182
4194681	-0.0049876	0.0288177	-0.0221223
4194691	-0.00385606	0.0277327	-0.0230927
4194701	-0.000647068	0.0245571	-0.0228186
4194711	0.000300288	0.0214299	-0.0205486
4194721	0.00124848	0.0172422	-0.0182513
4194731	0.00118899	0.0140866	-0.0171072
4194741	0.00100374	0.013105	-0.0138941
4194751	0.0018872	0.0121256	-0.0106169
4194761	0.00396442	0.0100349	-0.00937212
4194771	0.00598145	0.00584912	-0.00701082
4194781	0.00598407	0.00266719	-0.00692868
4194791	0.00479186	0.00165737	-0.00484157
4194801	0.000392675	0.00170183	-0.00297391
4194811	-0.00281453	0.00275624	-0.00319326
4194821	-0.000613213	0.000612736	-0.00407243
4194831	0.00152528	-0.000443816	-0.00391698
4194841	0.0024699	-0.00038898	-0.00172901
4194851	0.00347745	-0.00142121	-0.000575781
4194861	0.00567806	-0.00250411	-0.00148225
4194871	0.00693381	-0.00364161	-0.00457668
4194881	0.00699508	-0.00260746	-0.0056659
4194891	0.00699413	-0.00154686	-0.00569332
4194901	0.00473332	-0.00255883	-0.0036701
4194911	0.00360346	-0.00359511	-0.0026449
4194921	0.0058651	-0.00364375	-0.0046407
4194931	0.00712001	-0.00372076	-0.00776243
4194941	0.00711823	-0.00159955	-0.00781715
4194951	0.00705719	-0.00263381	-0.00672781
4194961	0.0059911	-0.00581789	-0.00670981
4194971	0.00486195	-0.00791478	-0.00565708
4194981	0.00385618	-0.00900388	-0.00675571
4194991	0.00278831	-0.0100665	-0.00679231
4195001	0.00492489	-0.00900185	-0.00669169
4195011	0.0070616	-0.00793695	-0.00659096
4195021	0.00807011	-0.0100299	-0.00541031
4195031	0.00907838	-0.0121226	-0.00422966
4195041	0.0102103	-0.0132076	-0.00520015
4195051	0.0113412	-0.0132319	-0.00619805
4195061	0.00825357	-0.00692701	-0.0086782
4195071	0.0041647	-0.00701439	-0.01212
4195081	0.00731683	-0.0165274	-0.0106198
4195091	0.0125393	-0.0196464	-0.0080936
4195101	0.0146111	-0.0153733	-0.00701308
4195111	0.0112791	-0.0132055	-0.00513613
4195121	0.00914049	-0.0121491	-0.00529158
4195131	0.0102093	-0.0121469	-0.00522745
4195141	0.0111539	-0.0120921	-0.0030396
4195151	0.0110308	-0.0131	-0.000888467
4195161	0.0098989	-0.0120151	8.21352e-05
4195171	0.00971007	-0.00875413	0.00318575
4195181	0.0084542	-0.00761652	0.00628006
4195191	0.00808442	-0.0106403	0.0127337
4195201	0.00997555	-0.0126518	0.0171642
4195211	0.0130594	-0.0147142	0.0195349
4195221	0.0150098	-0.0135704	0.0228213
4195231	0.0137548	-0.0134934	0.025943
4195241	0.0135065	-0.0133879	0.0301907
4195251	0.0140769	-0.0110537	0.0386955
4195261	0.0109392	-0.00215077	0.0553392
4195271	0.00309002	0.00904953	0.0791056
4195281	-0.00167155	0.013945	0.105352
4195291	-0.0036732	0.0164597	0.121162
4195301	-0.00568402	0.0132209	0.118992
4195311	-0.00612855	0.00871277	0.108418
4195321	-0.0065757	0.00738633	0.0977627
4195331	-0.00828052	0.00931895	0.0901464
4195341	-0.00817263	0.0114036	0.0879792
4195351	-0.00584793	0.0102681	0.0849489
4195361	-0.00434554	0.0111461	0.0775518
4195371	-0.00158906	0.0130079	0.0670059
4195381	0.00022471	0.0126936	0.0543265
4195391	0.00228763	0.0112132	0.0374268
4195401	0.00435042	0.0097326	0.0205272
4195411	0.00610018	0.011566	0.00885522
4195421	0.00640714	0.0156769	0.00343609
4195431	0.00552094	0.0198382	7.66516e-05
4195441	0.00558305	0.0198119	-0.000985265
4195451	0.00451529	0.0187492	-0.00102186
4195461	0.00357139	0.0176337	-0.00318253
4195471	0.00350857	0.0187207	-0.00214791
4195481	0.00231373	0.0208926	-0.000142694
4195491	-0.000958323	0.0251555	0.000617504
4195501	-0.00221515	0.0273538	0.00368464
4195511	-0.00120914	0.028443	0.00478327
4195521	-7.83205e-05	0.0284185	0.00378537
4195531	-0.000203252	0.029532	0.00588179
4195541	-0.000329256	0.031706	0.00795102
4195551	-0.000329256	0.031706	0.00795102
4195561	-0.00246608	0.0306412	0.00785029
4195571	-0.0045433	0.0327321	0.00660551
4195581	-0.0065583	0.0347965	0.00429881
4195591	-0.00769103	0.0369421	0.00524199
4195601	-0.00662398	0.0390655	0.00525129
4195611	-0.0075084	0.0411056	0.00194681
4195621	-0.00946248	0.0442044	-0.00144923
4195631	-0.0124232	0.0472747	-0.00597131
4195641	-0.0153209	0.049258	-0.0115278
4195651	-0.0160182	0.0501583	-0.0179907
4195661	-0.013572	0.0521519	-0.0232272
4195671	-0.0144563	0.0541922	-0.0265318
4195681	-0.0153397	0.0551715	-0.0298089
4195691	-0.0152795	0.0572665	-0.0309256
4195701	-0.0142745	0.0594162	-0.0298544
4195711	-0.0131419	0.0572706	-0.0307976
4195721	-0.0130771	0.0540624	-0.0317775
4195731	-0.0118213	0.0529245	-0.0348719
4195741	-0.00710893	0.0495663	-0.0419672
4195751	-0.00428843	0.0492804	-0.0535204
4195761	-0.0071888	0.0544456	-0.059159
4195771	-0.0136691	0.0608236	-0.0586456
4195781	-0.0149249	0.0619613	-0.0555511
4195791	-0.0140424	0.0620425	-0.0523013
4195801	-0.0162412	0.061004	-0.0513401
4195811	-0.0174341	0.0610547	-0.0492803
4195821	-0.0174341	0.0610547	-0.0492803
4195831	-0.0163023	0.0599698	-0.0502506
4195841	-0.0163023	0.0599698	-0.0502506
4195851	-0.0173712	0.0599678	-0.0503148
4195861	-0.0164256	0.0589617	-0.0480995
4195871	-0.0144734	0.0579844	-0.0447582
4195881	-0.0136502	0.0549101	-0.0403644
4195891	-0.0137097	0.0517545	-0.0392203
4195901	-0.0136458	0.0496068	-0.0402275
4195911	-0.0146499	0.0463963	-0.0412714
4195921	-0.0147111	0.0453621	-0.0401821
4195931	-0.0138888	0.0433483	-0.0358156
4195941	-0.0108651	0.039191	-0.0323282
4195951	-0.00991964	0.0381851	-0.0301129
4195961	-0.00885081	0.0381871	-0.0300488
4195971	-0.0100437	0.0382378	-0.0279889
4195981	-0.0112358	0.037228	-0.0259019
4195991	-0.0101652	0.0351087	-0.0257829
4196001	-0.0080241	0.0308701	-0.0255455
4196011	-0.00707686	0.027743	-0.0232754
4196021	-0.00619245	0.0257028	-0.0199709
4196031	-0.00405312	0.0235857	-0.019788
4196041	-0.00197756	0.0236162	-0.0185981
4196051	-0.00216377	0.0236952	-0.0154122
4196061	-0.00335503	0.0216247	-0.0132977
4196071	-0.00228262	0.0173841	-0.0131242
4196081	0.00193405	0.0131761	-0.0116965
4196091	0.00294149	0.0121437	-0.0105432
4196101	0.00187361	0.0110811	-0.0105798
4196111	-0.00239801	0.00683033	-0.0107266
4196121	-0.014469	-0.00517797	-0.0239373
4196131	-0.0152514	0.00696564	-0.0477563
4196141	0.00113785	0.0248693	-0.0536327
4196151	0.0135227	0.0325032	-0.0456223
4196161	0.0151707	0.0242331	-0.0367799
4196171	0.0127937	0.0137279	-0.0323865
4196181	0.0113568	0.00858068	-0.025942
4196191	0.00991666	0.00767624	-0.0196069
4196201	0.00860119	0.00565839	-0.0153686
4196211	0.00741172	0.00146651	-0.0131993
4196221	0.0072912	-0.00272334	-0.0109659
4196231	0.0092417	-0.00157964	-0.00767934
4196241	0.0111291	0.00065136	-0.00335824
4196251	0.0099982	0.000675559	-0.00236034
4196261	0.00798488	0.000618815	-0.00461233
4196271	0.00704014	0.000564098	-0.00680029
4196281	0.00597131	0.000561953	-0.00686431
4196291	0.00603259	0.00159621	-0.00795364
4196301	0.00716269	0.00263262	-0.00897896
4196311	0.00710142	0.00159836	-0.00788963
4196321	0.00591016	-0.000472307	-0.00577497
4196331	0.00484228	-0.00153506	-0.00581157
4196341	0.0059092	0.000588298	-0.00580227
4196351	0.0081073	0.00268745	-0.00679111
4196361	0.0113163	-0.000488281	-0.00651681
4196371	0.0133917	-0.000457883	-0.00532675
4196381	0.0133908	0.000602722	-0.00535405
4196391	0.0134521	0.0016371	-0.0064435
4196401	0.0133891	0.00272405	-0.00540888
4196411	0.0122575	0.00380898	-0.00443828
4196421	0.0122566	0.0048697	-0.0044657
4196431	0.0121953	0.00383532	-0.00337636
4196441	0.0121342	0.00280106	-0.00228715
4196451	0.0132658	0.00171614	-0.00325763
4196461	0.013265	0.00277674	-0.00328505
4196471	0.0111239	0.00701535	-0.00352252
4196481	0.00797784	0.00910401	-0.00483131
4196491	0.00911129	0.00589776	-0.00574696
4196501	0.010119	0.00486553	-0.00459373
4196511	0.0110626	0.00598097	-0.00243318
4196521	0.0109377	0.0070945	-0.000336647
4196531	0.0118831	0.0060885	0.00187862
4196541	0.0118229	0.00399351	0.00299525
4196551	0.00861657	0.00398731	0.00280321
4196561	0.00635564	0.00297534	0.00482631
4196571	0.00623238	0.00196755	0.00697756
4196581	0.00849414	0.00191879	0.00498188
4196591	0.00868034	0.00183976	0.00179601
4196601	0.00874245	0.00181341	0.000734091
4196611	0.00761235	0.000777006	0.00175929
4196621	0.0074892	-0.000230908	0.00391054
4196631	0.00623238	0.00196755	0.00697756
4196641	0.00290096	0.00307465	0.00888205
4196651	0.00308633	0.00405622	0.00566888
4196661	0.00320959	0.00506413	0.00351763
4196671	0.00321138	0.0029428	0.00357234
4196681	0.00208127	0.00190639	0.00459766
4196691	0.00107825	-0.00236464	0.00358117
4196701	0.000259399	-0.00459337	-0.000676036
4196711	-0.001755	-0.00358963	-0.00295532
4196721	-0.00288653	-0.00250471	-0.00198483
4196731	-0.00294864	-0.00247824	-0.000922799
4196741	-0.00294697	-0.00459957	-0.000868082
4196751	-0.00288486	-0.00462604	-0.00193012
4196761	-0.00288486	-0.00462604	-0.00193012
4196771	-0.00609207	-0.00357151	-0.00214958
4196781	-0.00829363	-0.00142789	-0.00127029
4196791	-0.0073508	0.000748158	0.000862837
4196801	-0.00728869	0.000721812	-0.00019908
4196811	-0.010433	0.000689268	-0.00145304
4196821	-0.0123835	-0.000454545	-0.00473976
4196831	-0.0101217	-0.000503182	-0.00673544
4196841	-0.0100596	-0.000529528	-0.00779748
4196851	-0.0111284	-0.000531554	-0.0078615
4196861	-0.0123223	0.000579715	-0.00582898
4196871	-0.0124456	-0.0004282	-0.00367785
4196881	-0.0114379	-0.00146055	-0.00252438
4196891	-0.00935984	-0.00461197	-0.00125229
4196901	-0.00929594	-0.00675964	-0.00225949
4196911	-0.0111871	-0.00474787	-0.00669003
4196921	-0.013203	-0.00162292	-0.00902414
4196931	-0.013266	-0.000535727	-0.00798965
4196941	-0.0133281	-0.000509381	-0.00692761
4196951	-0.0133883	-0.00260437	-0.00581098
4196961	-0.0113102	-0.00575578	-0.00453877
4196971	-0.0113094	-0.00681639	-0.00451136
4196981	-0.0165311	-0.00475824	-0.00701022
4196991	-0.0186695	-0.00370157	-0.00716555
4197001	-0.0154631	-0.00369537	-0.00697351
4197011	-0.0123169	-0.00578415	-0.00566483
4197021	-0.0101767	-0.00896204	-0.00545454
4197031	-0.0111222	-0.00795615	-0.00766993
4197041	-0.0121307	-0.00586331	-0.00885069
4197051	-0.0110637	-0.00373995	-0.00884128
4197061	-0.0111258	-0.00371349	-0.00777936
4197071	-0.011124	-0.00583482	-0.00772464
4197081	-0.0121902	-0.00901878	-0.00770664
4197091	-0.0121894	-0.0100795	-0.00767934
4197101	-0.0122505	-0.0111138	-0.00658989
4197111	-0.0111809	-0.0121723	-0.00649846
4197121	-0.0100499	-0.0121967	-0.00749648
4197131	-0.010049	-0.0132574	-0.00746906
4197141	-0.00998604	-0.0143445	-0.00850356
4197151	-0.00778639	-0.0143666	-0.00943744
4197161	-0.00564957	-0.013302	-0.00933683
4197171	-0.00452161	-0.0101444	-0.0104167
4197181	-0.00445855	-0.0112313	-0.0114512
4197191	-0.00451982	-0.0122656	-0.010362
4197201	-0.00244498	-0.0111744	-0.00919938
4197210	-0.00137627	-0.0111724	-0.00913537
4197220	-0.00131166	-0.0143807	-0.0101151
4197230	-0.000116825	-0.0165526	-0.0121204
4197240	0.00302827	-0.0175807	-0.0108389
4197250	0.0061717	-0.0164876	-0.0096122
4197260	0.00705433	-0.0164063	-0.00636244
4197270	0.00485551	-0.0174447	-0.00540113
4197280	0.00177431	-0.0185645	-0.00768971
4197290	0.000705481	-0.0185665	-0.00775385
4197300	0.00378764	-0.0185075	-0.00543773
4197310	0.00775158	-0.0173067	0.000100613
4197320	0.00970292	-0.0172236	0.00341451
4197330	0.0129093	-0.0172174	0.00360656
4197340	0.0139791	-0.018276	0.00369799
4197350	0.0118432	-0.0204014	0.00362468
4197360	0.00762916	-0.0193753	0.00227916
4197370	0.00668371	-0.0183694	6.40154e-05
4197380	0.0110201	-0.017327	-0.000769258
4197390	0.0132196	-0.0173492	-0.00170314
4197400	0.0132178	-0.0152279	-0.00175786
4197410	0.0120845	-0.0120217	-0.000842094
4197420	0.0120215	-0.0109346	0.000192642
4197430	0.00988388	-0.0109388	6.46114e-05
4197440	0.00875211	-0.00985384	0.00103509
4197450	0.00862718	-0.00874043	0.00313163
4197460	0.0107656	-0.00979698	0.00328696
4197470	0.0129669	-0.0119405	0.00240779
4197480	0.0140357	-0.0119383	0.0024718
4197490	0.014096	-0.00984347	0.00135517
4197500	0.0142176	-0.00671422	-0.000850797
4197510	0.013209	-0.00462151	-0.00203156
4197520	0.0100639	-0.00359333	-0.00331283
4197530	0.00792551	-0.00253677	-0.00346839
4197540	0.00673425	-0.00460744	-0.00135386
4197550	0.0066731	-0.00564158	-0.000264406
4197560	0.00560164	-0.00246179	-0.000410557
4197570	0.00578606	-0.000419617	-0.00365114
4197580	0.00370967	0.00061059	-0.00486839
4197590	0.00251758	-0.00039947	-0.00278127
4197600	0.00132477	-0.000348687	-0.000721335
4197610	0.00233138	-0.000320315	0.000404596
4197620	0.00553775	-0.000314116	0.000596642
4197630	0.00559986	-0.000340462	-0.000465274
4197640	0.00245559	-0.000373125	-0.00171936
4197650	-0.000812054	-0.00141346	-0.000822067
4197660	0.000193834	-0.000324368	0.000276446
4197670	0.00239253	0.000713944	-0.000684619
4197680	0.00446808	0.000744462	0.000505328
4197690	0.00346315	-0.00140524	-0.000565886
4197700	0.00132382	0.000711918	-0.000748634
4197710	-0.000755191	0.00492406	-0.00204837
4197720	-0.00295484	0.00494635	-0.00111437
4197730	-0.00408673	0.00603127	-0.000143766
4197740	-0.00515556	0.00602913	-0.000207782
4197750	-0.00503135	0.00597632	-0.00233173
4197760	-0.00402462	0.00600493	-0.00120568
4197770	-0.00509346	0.00600278	-0.0012697
4197780	-0.00710773	0.00700665	-0.00354922
4197790	-0.00704741	0.00910151	-0.00466585
4197800	-0.00509608	0.00918472	-0.00135183
4197810	-0.00314367	0.00820732	0.00198936
4197820	-0.00314105	0.00502539	0.00207138
4197830	-0.00295401	0.00388563	-0.00108695
4197840	-0.00389874	0.00383079	-0.00327492
4197850	-0.00383842	0.00592577	-0.00439155
4197860	-0.00276864	0.0048672	-0.00430024
4197870	0.000439525	0.00275207	-0.00405347
4197880	0.002514	0.00384307	-0.00289071
4197890	0.000437737	0.00487339	-0.00410819
4197900	-0.00383747	0.00486517	-0.00436425
4197910	-0.0049063	0.00486302	-0.00442827
4197920	-0.00603807	0.00594795	-0.00345778
4197930	-0.00716972	0.00703299	-0.0024873
4197940	-0.0060389	0.00700867	-0.0034852
4197950	-0.00603807	0.00594795	-0.00345778
4197960	-0.00603807	0.00594795	-0.00345778
4197970	-0.00924456	0.00594175	-0.00364983
4197980	-0.0113821	0.0059377	-0.00377786
4197990	-0.01245	0.00487506	-0.0038147
4198000	-0.0111941	0.00373733	-0.00690889
4198010	-0.0101253	0.00373936	-0.00684488
4198020	-0.00804973	0.00376987	-0.00565493
4198030	-0.00804877	0.00270927	-0.00562763
4198040	-0.0091176	0.00270712	-0.00569165
4198050	-0.0101855	0.00164449	-0.00572824
4198060	-0.00911498	-0.000474811	-0.00560951
4198070	-0.00804436	-0.00259399	-0.00549078
4198080	-0.00684881	-0.00582659	-0.00746858
4198090	-0.0067867	-0.00585306	-0.0085305
4198100	-0.00565398	-0.0079987	-0.00947368
4198110	-0.0058403	-0.00791955	-0.00628781
4198120	-0.00590408	-0.00577188	-0.00528061
4198130	-0.00477517	-0.00367486	-0.00633311
4198140	-0.00685143	-0.00264466	-0.00755072
4198150	-0.0100578	-0.00265086	-0.00774276
4198160	-0.011125	-0.00477421	-0.00775206
4198170	-0.00898647	-0.00583076	-0.00759661
4198180	-0.00571704	-0.00691164	-0.00843906
4198190	-0.00363982	-0.00900233	-0.00719428
4198200	-0.00476992	-0.0100389	-0.00616896
4198210	-0.00697112	-0.00789523	-0.00528991
4198220	-0.00590408	-0.00577188	-0.00528061
4198230	-0.00370455	-0.00579405	-0.00621438
4198240	-0.00358033	-0.00584686	-0.00833833
4198250	-0.00464737	-0.00797033	-0.00834763
4198260	-0.00590062	-0.0100145	-0.00517118
4198270	-0.00816417	-0.00784457	-0.00323009
4198280	-0.00816417	-0.00784457	-0.00323009
4198290	-0.0059644	-0.00786686	-0.00416398
4198300	-0.00477076	-0.00897813	-0.00619626
4198310	-0.00464737	-0.00797033	-0.00834763
4198320	-0.00471044	-0.00688314	-0.00731301
4198330	-0.00263393	-0.00791335	-0.00609565
4198340	-0.000495553	-0.00896978	-0.0059402
4198350	0.000574112	-0.0100285	-0.00584888
4198360	0.000573277	-0.00896776	-0.00587618
4198370	0.00158012	-0.00893939	-0.00475013
4198380	0.00158191	-0.0110607	-0.00469542
4198390	0.00271344	-0.0121456	-0.00566602
4198400	0.00390649	-0.0121963	-0.00772595
4198410	0.00277376	-0.0100508	-0.00678277
4198420	0.00264883	-0.00893736	-0.00468612
4198430	0.00258672	-0.00891101	-0.0036242
4198440	0.00258756	-0.00997174	-0.0035969
4198450	0.00145769	-0.011008	-0.00257158
4198460	0.00152063	-0.012095	-0.0036062
4198470	0.00365818	-0.0120908	-0.00347817
4198480	0.00472796	-0.0131495	-0.00338674
4198490	0.00472701	-0.0120888	-0.00341415
4198500	0.00579488	-0.0110261	-0.00337744
4198510	0.0068655	-0.0131453	-0.00325871
4198520	0.00579751	-0.0142081	-0.0032953
4198530	0.00579667	-0.0131475	-0.00332272
4198540	0.00579488	-0.0110261	-0.00337744
4198550	0.00686276	-0.00996339	-0.00334084
4198560	0.00686276	-0.00996339	-0.00334084
4198570	0.00692487	-0.00998974	-0.00440276
4198580	0.00371766	-0.00893521	-0.0046221
4198590	0.00264883	-0.00893736	-0.00468612
4198600	0.00460029	-0.00885415	-0.00137234
4198610	0.00560689	-0.00882566	-0.000246286
4198620	0.00453639	-0.00670636	-0.000365019
4198630	0.00352883	-0.00567424	-0.00151849
4198640	0.00371587	-0.00681388	-0.00467682
4198650	0.0059154	-0.00683618	-0.0056107
4198660	0.00698423	-0.00683403	-0.00554669
4198670	0.00692141	-0.00574708	-0.00451219
4198680	0.00786781	-0.00781369	-0.00226963
4198690	0.00673699	-0.00778937	-0.00127172
4198700	0.00359082	-0.00570059	-0.0025804
4198710	0.000443935	-0.0025512	-0.00391662
4198720	0.000380039	-0.000403523	-0.00290942
4198730	0.00132477	-0.000348687	-0.000721335
4198740	0.00245559	-0.000373125	-0.00171936
4198750	0.00251758	-0.00039947	-0.00278127
4198760	0.0025779	0.00169551	-0.00389791
4198770	0.000316262	0.00174415	-0.00190222
4198780	-0.00295222	0.00176442	-0.00103223
4198790	-0.00182223	0.00280058	-0.00205767
4198800	0.000378251	0.00171781	-0.00296414
4198810	0.000316262	0.00174415	-0.00190222
4198820	-0.00188434	0.00282705	-0.000995636
4198830	-0.00182223	0.00280058	-0.00205767
4198840	-0.00283074	0.00489354	-0.00323832
4198850	-0.00289369	0.00598049	-0.0022037
4198860	-0.00289369	0.00598049	-0.0022037
4198870	-0.00182498	0.00598252	-0.00213969
4198880	-0.00176299	0.00595617	-0.0032016
4198890	-0.00283432	0.00913608	-0.00334775
4198900	-0.0028981	0.0112838	-0.00234056
4198910	-0.00402904	0.0113082	-0.00134254
4198920	-0.00616741	0.0123646	-0.0014981
4198930	-0.00711393	0.0144311	-0.00374079
4198940	-0.00799835	0.0164714	-0.00704527
4198950	-0.00888169	0.0174507	-0.0103226
4198960	-0.00982809	0.0195173	-0.0125651
4198970	-0.00976777	0.0216123	-0.0136819
4198980	-0.00958419	0.0247151	-0.0169498
4198990	-0.00946009	0.0246624	-0.0190737
4199000	-0.00933409	0.0224882	-0.0211427
4199010	-0.00945652	0.0204197	-0.0189642
4199020	-0.00863528	0.0194665	-0.0146251
4199030	-0.0106477	0.0183492	-0.0168495
4199040	-0.0126585	0.0151104	-0.0190195
4199050	-0.0137265	0.0140476	-0.0190562
4199060	-0.0127214	0.0161973	-0.0179849
4199070	-0.0117769	0.0162522	-0.015797
4199080	-0.0117778	0.0173128	-0.0158244
4199090	-0.00970137	0.0162826	-0.014607
4199100	-0.00762224	0.0120705	-0.0133076
4199110	-0.00441325	0.00889468	-0.0130333
4199120	-0.00346684	0.00682831	-0.0107906
4199130	-0.003528	0.00579393	-0.00970125
4199140	-0.00359094	0.006881	-0.00866675
4199150	-0.00245917	0.00579596	-0.00963724
4199160	-0.00145078	0.003703	-0.00845659
4199170	-0.00151193	0.00266886	-0.00736737
4199180	-0.00144899	0.00158179	-0.00840187
4199190	-0.00138509	-0.000565886	-0.00940907
4199200	-0.00239098	-0.00165498	-0.0105076
4199210	-0.00239182	-0.000594258	-0.010535
4199220	-0.00138688	0.00155544	-0.00946379
4199230	-0.000379324	0.00052321	-0.00831044
4199240	-0.0014472	-0.000539541	-0.00834715
4199250	-0.00264108	0.000571847	-0.00631452
4199260	-0.00383484	0.00168324	-0.00428212
4199270	-0.00603449	0.00170541	-0.00334835
4199280	-0.00811088	0.00273561	-0.00456572
4199290	-0.00697994	0.0027113	-0.00556362
4199300	-0.00270474	0.00271952	-0.00530744
4199310	0.000502467	0.00166512	-0.00508797
4199320	0.000503302	0.000604391	-0.00506055
4199330	0.000443935	-0.0025512	-0.00391662
4199340	0.00157654	-0.00469685	-0.00485969
4199350	0.00163949	-0.0057838	-0.00589418
4199360	0.000631809	-0.00475156	-0.00704777
4199370	0.000693083	-0.0037173	-0.00813699
4199380	0.00163853	-0.00472319	-0.0059216
4199390	0.00270724	-0.00472116	-0.00585759
4199400	0.00270641	-0.00366044	-0.00588489
4199410	0.00264359	-0.00257349	-0.00485039
4199420	0.00258148	-0.00254714	-0.00378847
4199430	0.00258315	-0.00466847	-0.00373375
4199440	0.00365376	-0.00678754	-0.0036149
4199450	0.00371766	-0.00893521	-0.0046221
4199460	0.00264704	-0.00681603	-0.00474083
4199470	0.00358987	-0.00463998	-0.00260782
4199480	0.00679624	-0.00463378	-0.00241578
4199490	0.00893486	-0.00569034	-0.00226021
4199500	0.00893486	-0.00569034	-0.00226021
4199510	0.00679624	-0.00463378	-0.00241578
4199520	0.00572658	-0.00357521	-0.00250709
4199530	0.00578785	-0.00254095	-0.00359643
4199540	0.00786424	-0.00357103	-0.00237906
4199550	0.00893486	-0.00569034	-0.00226021
4199560	0.0100054	-0.00780964	-0.00214148
4199570	0.0100044	-0.00674891	-0.00216877
4199580	0.00993979	-0.00354064	-0.00118899
4199590	0.0100018	-0.00356698	-0.00225091
4199600	0.00887191	-0.00460339	-0.00122571
4199610	0.00881076	-0.00563753	-0.000136256
4199620	0.00893486	-0.00569034	-0.00226021
4199630	0.00918317	-0.00579572	-0.00650799
4199640	0.0113828	-0.00581801	-0.00744188
4199650	0.014465	-0.005759	-0.00512588
4199660	0.014465	-0.005759	-0.00512588
4199670	0.0122663	-0.00679743	-0.00416458
4199680	0.0110112	-0.00672042	-0.00104284
4199690	0.0109473	-0.00457275	-3.56436e-05
4199700	0.0120783	-0.00459719	-0.00103366
4199710	0.0111319	-0.00253057	-0.00327623
4199720	0.011255	-0.00152266	-0.00542736
4199730	0.0111922	-0.000435591	-0.00439286
4199740	0.0100603	0.000649214	-0.00342226
4199750	0.00999999	-0.00144577	-0.00230563
4199760	0.0110095	-0.00459921	-0.00109768
4199770	0.00981557	-0.00348783	0.000934958
4199780	0.00780046	-0.00142348	-0.00137186
4199790	0.00911844	-0.00258744	-0.00552809
4199800	0.0113181	-0.00260961	-0.0064621
4199810	0.0100009	-0.00250638	-0.00227833
4199820	0.00880539	0.000726342	-0.000300407
4199830	0.007797	0.00281918	-0.00148141
4199840	0.0068531	0.00170386	-0.00364184
4199850	0.00685573	-0.0014782	-0.00355971
4199860	0.00578606	-0.000419617	-0.00365114
4199870	0.00364673	0.00169766	-0.00383389
4199880	0.00358379	0.00278461	-0.00279939
4199890	0.00471556	0.00169969	-0.00376987
4199900	0.00578606	-0.000419617	-0.00365114
4199910	0.00572574	-0.0025146	-0.00253451
4199920	0.0056628	-0.00142765	-0.00149989
4199930	0.00673079	-0.00036478	-0.00146329
4199940	0.00679278	-0.000391126	-0.00252521
4199950	0.00685394	0.000643134	-0.00361443
4199960	0.00572217	0.00172806	-0.00264394
4199970	0.0025779	0.00169551	-0.00389791
4199980	0.00371063	-0.000450015	-0.00484109
4199990	0.00591099	-0.00153303	-0.00574756
4200000	0.00483966	0.001647	-0.00589371
4200010	0.00156772	0.00590968	-0.00513327
4200020	-0.000446677	0.00691366	-0.00741279
4200030	-0.00352883	0.00685465	-0.00972867
4200040	-0.00453389	0.00470483	-0.0107999
4200050	-0.00453484	0.00576544	-0.0108272
4200060	-0.00346506	0.00470698	-0.0107359
4200070	-0.00459683	0.00579178	-0.00976527
4200080	-0.0067991	0.00899601	-0.00891364
4200090	-0.00679994	0.0100567	-0.00894105
4200100	-0.00686026	0.00796187	-0.0078243
4200110	-0.00685942	0.00690126	-0.007797
4200120	-0.0069207	0.00586689	-0.00670755
4200130	-0.0068568	0.00371921	-0.00771487
4200140	-0.00584745	0.000565648	-0.00650668
4200150	-0.00591028	0.00165272	-0.00547218
4200160	-0.00792563	0.00371718	-0.00777888
4200170	-0.00679553	0.00475347	-0.0088042
4200180	-0.00578701	0.00266063	-0.00762355
4200190	-0.00584745	0.000565648	-0.00650668
4200200	-0.00578535	0.000539303	-0.00756872
4200210	-0.00584745	0.000565648	-0.00650668
4200220	-0.0058465	-0.000494957	-0.00647938
4200230	-0.00578439	-0.000521302	-0.00754142
4200240	-0.00697732	-0.000470638	-0.00548148
4200250	-0.00697732	-0.000470638	-0.00548148
4200260	-0.00590765	-0.00152934	-0.00539005
4200270	-0.00383043	-0.00362003	-0.00414526
4200280	-0.00288391	-0.00568664	-0.0019027
4200290	-0.00275803	-0.00786066	-0.00397182
4200300	-0.00382686	-0.00786269	-0.00403583
4200310	-0.00275981	-0.00573933	-0.00402653
4200320	-0.00276077	-0.00467873	-0.00405395
4200330	-0.00275981	-0.00573933	-0.00402653
4200340	-0.00168931	-0.00785863	-0.0039078
4200350	-0.00055933	-0.00682211	-0.004933
4200360	-0.00162816	-0.00682425	-0.00499701
4200370	-0.00483191	-0.0100125	-0.00510705
4200380	-0.00489402	-0.00998616	-0.00404513
4200390	-0.00282013	-0.00783432	-0.0029099
4200400	-0.000684381	-0.00570881	-0.00283659
4200410	-0.000623226	-0.00467455	-0.00392592
4200420	-0.00163078	-0.00364232	-0.00507915
4200430	-0.000561118	-0.0047009	-0.00498784
4200440	0.00163853	-0.00472319	-0.0059216
4200450	0.0048449	-0.00471699	-0.00572956
4200460	0.00805044	-0.00365007	-0.00556481
4200470	0.0111957	-0.00467825	-0.00428343
4200480	0.0111974	-0.00679946	-0.00422859
4200490	0.00799108	-0.00680566	-0.00442076
4200500	0.00578952	-0.00466228	-0.00354171
4200509	0.00691962	-0.00362575	-0.00456691
4200519	0.00692046	-0.00468647	-0.00453961
4200529	0.00572836	-0.00569654	-0.00245237
4200539	0.00251937	-0.0025208	-0.00272655
4200549	0.000381827	-0.00252485	-0.0028547
4200559	0.00044477	-0.0036118	-0.0038892
4200569	-0.000624895	-0.00255322	-0.00398064
4200579	-0.00169468	-0.00149477	-0.00407195
4200589	-0.00276339	-0.00149679	-0.00413597
4200599	-0.00163257	-0.00152111	-0.00513387
4200609	0.000506043	-0.00257754	-0.00497854
4200619	0.00258148	-0.00254714	-0.00378847
4200629	0.00145149	-0.00358343	-0.00276315
4200639	0.000322461	-0.00568044	-0.00171065
4200649	0.000446558	-0.00573313	-0.00383449
4200659	0.000508666	-0.00575948	-0.0048964
4200669	0.00277114	-0.00686872	-0.00686479
4200679	0.00277293	-0.00899005	-0.00681007
4200689	0.00164211	-0.00896573	-0.00581205
4200699	0.00151539	-0.00573111	-0.00377035
4200709	-0.000560164	-0.0057615	-0.00496042
4200719	0.000573277	-0.00896776	-0.00587618
4200729	0.00378227	-0.0121435	-0.005602
4200739	0.00478911	-0.0121151	-0.00447607
4200749	0.00378048	-0.0100223	-0.00565672
4200759	0.00396597	-0.00904071	-0.00886989
4200769	0.00402713	-0.00800645	-0.00995922
4200779	0.00396514	-0.00798011	-0.0088973
4200789	0.00295913	-0.0090692	-0.00999582
4200799	0.000823379	-0.0111946	-0.0100693
4200809	-0.000307441	-0.0111703	-0.00907135
4200819	0.00176811	-0.0111399	-0.00788128
4200829	0.00182927	-0.0101056	-0.00897062
4200839	0.00296092	-0.0111905	-0.0099411
4200849	0.00289714	-0.00904286	-0.0089339
4200859	0.00164127	-0.00790513	-0.00583947
4200869	0.000510454	-0.00788081	-0.00484169
4200879	-0.00257182	-0.0079397	-0.00715768
4200889	-0.00351644	-0.00799453	-0.00934553
4200899	-0.001441	-0.00796413	-0.00815558
4200909	0.00164211	-0.00896573	-0.00581205
4200919	0.00271165	-0.0100244	-0.00572073
4200929	0.00277472	-0.0111114	-0.00675535
4200939	0.00289893	-0.0111642	-0.00887918
4200949	0.00384176	-0.0089879	-0.00674605
4200959	0.00170243	-0.00687075	-0.0069288
4200969	-0.000436068	-0.00581419	-0.00708437
4200979	-0.00150585	-0.00475574	-0.0071758
4200989	-0.00156796	-0.00472939	-0.00611377
4200999	-0.00162899	-0.00576365	-0.00502443
4201009	0.000634551	-0.0079335	-0.00696564
4201019	0.00182664	-0.00692356	-0.00905263
4201029	0.0017637	-0.00583661	-0.00801814
4201039	0.000570655	-0.00578582	-0.00595832
4201049	-0.00156796	-0.00472939	-0.00611377
4201059	-0.00257456	-0.00475776	-0.00723982
4201069	0.000569701	-0.00472522	-0.00598574
4201079	0.00383914	-0.00580597	-0.00682819
4201089	0.00383735	-0.00368464	-0.00688291
4201099	0.00163591	-0.00154126	-0.00600362
4201109	0.00163686	-0.00260186	-0.00597632
4201119	0.0016377	-0.00366247	-0.0059489
4201129	0.00377524	-0.00365829	-0.00582087
4201139	0.00472176	-0.00572491	-0.00357831
4201149	0.00352967	-0.00673485	-0.00149107
4201159	0.0025841	-0.00572908	-0.00370634
4201169	0.000631809	-0.00475156	-0.00704777
4201179	-0.00150752	-0.00263441	-0.00723052
4201189	-0.00163341	-0.000460386	-0.00516129
4201199	0.00257969	-0.000425816	-0.00384319
4201209	0.0057869	-0.00148034	-0.00362372
4201219	0.00578785	-0.00254095	-0.00359643
4201229	0.00472081	-0.0046643	-0.00360572
4201239	0.00679719	-0.00569439	-0.00238836
4201249	0.00679624	-0.00463378	-0.00241578
4201259	0.00579047	-0.00572288	-0.00351429
4201269	0.0047847	-0.00681186	-0.0046128
4201279	0.00478566	-0.00787258	-0.0045855
4201289	0.00484848	-0.00895953	-0.00562
4201299	0.00497186	-0.00795174	-0.00777137
4201309	0.00603962	-0.00688899	-0.00773466
4201319	0.00597751	-0.00686252	-0.00667274
4201329	0.00490797	-0.00580394	-0.00676417
4201339	0.00371504	-0.00575328	-0.00470424
4201349	0.00566816	-0.00779152	-0.00133574
4201359	0.00774276	-0.00670016	-0.000172973
4201369	0.00667131	-0.00352025	-0.000319123
4201379	0.00364757	0.000636935	-0.00380647
4201389	0.00276411	0.00161648	-0.00708377
4201399	0.00389767	-0.00158989	-0.00799954
4201409	0.00478125	-0.00256932	-0.00472236
4201419	0.00346315	-0.00140524	-0.000565886
4201429	0.00453198	-0.00140321	-0.000501871
4201439	0.00566375	-0.00248826	-0.00147259
4201449	0.0078634	-0.00251043	-0.00240648
4201459	0.00792718	-0.0046581	-0.00341368
4201469	0.00679719	-0.00569439	-0.00238836
4201479	0.00685751	-0.00359941	-0.00350499
4201489	0.00899518	-0.00359535	-0.00337684
4201499	0.00899601	-0.00465608	-0.00334954
4201509	0.00912106	-0.00576937	-0.00544596
4201519	0.00811338	-0.00473714	-0.00659955
4201529	0.00805128	-0.00471079	-0.00553751
4201539	0.00686014	-0.00678134	-0.00342286
4201549	0.00686109	-0.00784206	-0.00339556
4201559	0.00792897	-0.00677931	-0.00335884
4201569	0.00994158	-0.00566196	-0.00113428
4201579	0.00975609	-0.00664341	0.00207901
4201589	0.00875211	-0.00985384	0.00103509
4201599	0.00780666	-0.00884795	-0.00118029
4201609	0.00786686	-0.00675297	-0.00229692
4201619	0.0110112	-0.00672042	-0.00104284
4201629	0.00994158	-0.00566196	-0.00113428
4201639	0.00679719	-0.00569439	-0.00238836
4201649	0.00692141	-0.00574708	-0.00451219
4201659	0.0070473	-0.0079211	-0.00658143
4201669	0.00585258	-0.00574923	-0.00457621
4201679	0.00578952	-0.00466228	-0.00354171
4201689	0.00691962	-0.00362575	-0.00456691
4201699	0.0102501	-0.00367236	-0.00649869
4201709	0.0145892	-0.00581181	-0.00724983
4201719	0.0167302	-0.0100504	-0.00701225
4201729	0.0167941	-0.012198	-0.00801945
4201739	0.0157254	-0.0122	-0.00808346
4201749	0.01554	-0.0131816	-0.00487018
4201759	0.0154159	-0.0131289	-0.00274634
4201769	0.0152918	-0.0130762	-0.000622511
4201779	0.0164251	-0.0162824	-0.00153828
4201789	0.0186888	-0.0184523	-0.00347936
4201799	0.0155426	-0.0163635	-0.00478804
4201809	0.0123966	-0.0142747	-0.00609696
4201819	0.00805843	-0.013196	-0.00531852
4201829	0.00705171	-0.0132244	-0.00644457
4201839	0.00799727	-0.0142303	-0.00422919
4201849	0.007936	-0.0152645	-0.00313997
4201859	0.00573719	-0.0163031	-0.00217867
4201869	0.00259197	-0.0152749	-0.00346005
4201879	0.00158453	-0.0142426	-0.00461328
4201889	0.00271344	-0.0121456	-0.00566602
4201899	0.00371945	-0.0110565	-0.00456738
4201909	0.00170505	-0.0100528	-0.00684679
4201919	0.00283504	-0.00901651	-0.00787199
4201929	0.00390029	-0.00477183	-0.00791752
4201939	0.00282979	-0.00265265	-0.00803626
4201949	0.00276768	-0.00262618	-0.00697434
4201959	0.00377524	-0.00365829	-0.00582087
4201969	0.00679541	-0.00357306	-0.00244308
4201979	0.00673342	-0.00354671	-0.00138116
4201989	0.00578868	-0.00360155	-0.00356901
4201999	0.00691962	-0.00362575	-0.00456691
4202009	0.00917959	-0.00155318	-0.00661743
4202019	0.0112542	-0.000461936	-0.00545478
4202029	0.012198	0.000653386	-0.00329423
4202039	0.0109413	0.00285184	-0.000227213
4202049	0.00886583	0.00282121	-0.00141728
4202059	0.00905371	0.000620842	-0.00454819
4202069	0.0102483	-0.00155115	-0.00655341
4202079	0.012323	-0.000459909	-0.00539076
4202089	0.0111283	0.00171208	-0.00338566
4202099	0.0079211	0.00276649	-0.00360525
4202109	0.00584638	0.00167537	-0.00476778
4202119	0.00584638	0.00167537	-0.00476778
4202129	0.00691605	0.000616789	-0.00467634
4202139	0.00899255	-0.000413418	-0.00345898
4202149	0.00999916	-0.000385046	-0.00233305
4202159	0.00993538	0.00176263	-0.00132585
4202169	0.0110024	0.00388598	-0.00131655
4202179	0.00886309	0.00600314	-0.0014993
4202189	0.0067246	0.00705981	-0.00165486
4202199	0.00785625	0.00597477	-0.00262535
4202209	0.00904846	0.00698483	-0.00471246
4202219	0.00798142	0.00486147	-0.00472188
4202229	0.00898993	0.00276852	-0.00354111
4202239	0.00993359	0.00388384	-0.00138056
4202249	0.0100569	0.00489187	-0.00353181
4202259	0.00791931	0.00488782	-0.00365996
4202269	0.00792015	0.0038271	-0.00363255
4202279	0.0111275	0.00277269	-0.00341308
4202289	0.0143968	0.00169194	-0.00425553
4202299	0.0154656	0.00169396	-0.0041914
4202309	0.0143976	0.000631213	-0.00422812
4202319	0.012261	-0.000433564	-0.00432885
4202329	0.00786161	-0.000389099	-0.00246119
4202339	0.00572395	-0.000393271	-0.00258923
4202349	0.00685489	-0.000417471	-0.00358713
4202359	0.0112532	0.000598669	-0.00548208
4202369	0.0133917	-0.000457883	-0.00532675
4202379	0.0121998	-0.00146794	-0.00323951
4202389	0.009938	-0.00141943	-0.00124371
4202399	0.0120748	-0.000354528	-0.0011431
4202409	0.0153432	-0.000374675	-0.00201285
4202419	0.016474	-0.000398993	-0.00301075
4202429	0.0164127	-0.00143337	-0.00192142
4202439	0.015345	-0.002496	-0.00195813
4202449	0.0111327	-0.00359118	-0.00324881
4202459	0.0101252	-0.00255907	-0.00440216
4202469	0.011193	-0.00149632	-0.00436544
4202479	0.0123239	-0.00152063	-0.00536335
4202489	0.0123239	-0.00152063	-0.00536335
4202499	0.0123248	-0.00258124	-0.00533605
4202509	0.0113802	-0.00263608	-0.00752401
4202519	0.00936759	-0.00375354	-0.00974846
4202529	0.00830054	-0.0058769	-0.00975788
4202539	0.00830054	-0.0058769	-0.00975788
4202549	0.00836265	-0.00590324	-0.0108198
4202559	0.0105631	-0.00698614	-0.0117263
4202569	0.0115716	-0.00907898	-0.0105455
4202579	0.0115122	-0.0122346	-0.00940156
4202589	0.0136515	-0.0143518	-0.00921869
4202599	0.0147203	-0.0143497	-0.00915468
4202609	0.0135282	-0.0153598	-0.00706756
4202619	0.0124595	-0.0153618	-0.00713158
4202629	0.0125216	-0.0153881	-0.00819349
4202639	0.0124605	-0.0164225	-0.00710416
4202649	0.0134076	-0.0195496	-0.00483418
4202659	0.0120304	-0.0215411	0.000466347
4202669	0.0119079	-0.0236096	0.0026449
4202679	0.0107771	-0.0235853	0.0036428
4202689	0.00976932	-0.0225532	0.00248945
4202699	0.00983143	-0.0225796	0.00142753
4202709	0.00983238	-0.0236402	0.00145495
4202719	0.0107788	-0.0257066	0.00369751
4202729	0.0129163	-0.0257026	0.00382555
4202739	0.0140455	-0.0236055	0.00277293
4202749	0.0129129	-0.0214601	0.00371611
4202759	0.0138565	-0.0203445	0.00587666
4202769	0.0126636	-0.0202938	0.00793648
4202779	0.0115337	-0.0213302	0.0089618
4202789	0.0105252	-0.0192373	0.00778103
4202799	0.0116553	-0.018201	0.00675583
4202809	0.0116535	-0.0160797	0.00670111
4202819	0.0117173	-0.0182275	0.00569391
4202829	0.0116553	-0.018201	0.00675583
4202839	0.0117155	-0.0161061	0.0056392
4202849	0.0139737	-0.011912	0.00353372
4202859	0.0129031	-0.00979292	0.00341499
4202869	0.0107026	-0.00870991	0.00432169
4202879	0.0107639	-0.00767565	0.00323224
4202889	0.010888	-0.00772834	0.00110841
4202899	0.011955	-0.00560498	0.00111771
4202909	0.0130832	-0.00244737	3.76701e-05
4202919	0.0131444	-0.00141323	-0.00105166
4202929	0.0110698	-0.00250423	-0.00221431
4202939	0.00987685	-0.00245357	-0.000154376
4202949	0.00862014	-0.000255227	0.00291264
4202959	0.00956368	0.000860095	0.00507331
4202969	0.0117635	0.000837922	0.00413942
4202979	0.0117644	-0.000222683	0.00416672
4202989	0.0117618	0.00295925	0.00408459
4202999	0.0107523	0.00611281	0.00287652
4203009	0.00980759	0.00605798	0.000688672
4203019	0.00974643	0.00502372	0.00177789
4203029	0.00974822	0.00290239	0.0018326
4203039	0.0108171	0.00290453	0.00189662
4203049	0.0129536	0.00396919	0.00199735
4203059	0.0150895	0.00609469	0.00207078
4203069	0.013831	0.0104144	0.00508296
4203079	0.0103126	0.0126612	0.0101459
4203089	0.0088712	0.0128173	0.0164535
4203099	0.00874972	0.00968814	0.0186595
4203109	0.00893688	0.00854838	0.0155011
4203119	0.00591671	0.00846326	0.0121231
4203129	0.00176477	0.00946271	0.0097158
4203139	0.00182676	0.00943637	0.00865388
4203149	0.00182855	0.00731516	0.0087086
4203159	0.00189245	0.00516748	0.00770128
4203169	0.00207865	0.00508833	0.00451553
4203179	0.00220287	0.00503564	0.00239158
4203189	0.0011332	0.00609422	0.00230026
4203199	2.26498e-06	0.00611854	0.00329816
4203209	0.00113499	0.00397289	0.00235498
4203219	0.00220549	0.0018537	0.00247371
4203229	0.00226831	0.000766635	0.00143921
4203239	0.00119877	0.00182533	0.00134778
4203249	0.000129104	0.00288391	0.00125623
4203259	-0.000753403	0.00280273	-0.00199366
4203269	-0.000506163	0.00375795	-0.00626862
4203279	-0.000382781	0.00476587	-0.00841999
4203289	-0.00258243	0.00478816	-0.0074861
4203299	-0.00383568	0.00274384	-0.00430954
4203309	-0.00395977	0.00279653	-0.0021857
4203319	-0.00383568	0.00274384	-0.00430954
4203329	-0.00264108	0.000571847	-0.00631452
4203339	-0.00151026	0.000547528	-0.00731254
4203349	-0.00276685	0.00274587	-0.00424552
4203359	-0.00508988	0.00176024	-0.00116026
4203369	-0.00621986	0.000723839	-0.000135064
4203379	-0.00496495	0.00064671	-0.0032568
4203389	-0.00478137	0.00374961	-0.00652468
4203399	-0.00579059	0.00690329	-0.00773299
4203409	-0.00685942	0.00690126	-0.007797
4203419	-0.0090574	0.00480211	-0.00680828
4203429	-0.00792563	0.00371718	-0.00777888
4203439	-0.00679469	0.00369275	-0.00877678
4203449	-0.00560355	0.00576341	-0.0108913
4203459	-0.00755405	0.0046196	-0.0141779
4203469	-0.00968897	0.00143349	-0.0142238
4203479	-0.0120111	-0.000612736	-0.0111114
4203489	-0.0120093	-0.00273407	-0.0110567
4203499	-0.0108154	-0.00384533	-0.0130891
4203509	-0.00748312	-0.00601327	-0.0149661
4203519	-0.00421464	-0.00603354	-0.0158359
4203529	-0.00534642	-0.00494862	-0.0148655
4203539	-0.00635314	-0.00497699	-0.0159914
4203549	-0.00855196	-0.00601542	-0.0150301
4203559	-0.00873733	-0.00699687	-0.0118169
4203569	-0.00672281	-0.00800073	-0.0095377
4203579	-0.00452065	-0.011205	-0.0103893
4203589	-0.00332499	-0.0144374	-0.0123671
4203599	-0.00445592	-0.0144132	-0.0113691
4203609	-0.00558674	-0.0143889	-0.0103713
4203619	-0.00464034	-0.0164555	-0.00812864
4203629	-0.00683999	-0.0164331	-0.00719488
4203639	-0.00577211	-0.0153704	-0.00715828
4203649	-0.00375867	-0.0153135	-0.00490618
4203659	-0.00180733	-0.0152304	-0.0015924
4203669	-0.00193059	-0.0162383	0.000558972
4203679	-0.00192881	-0.0183597	0.000613689
4203689	-0.000921249	-0.0193918	0.00176692
4203699	-0.000858307	-0.0204787	0.000732422
4203709	-0.00186503	-0.0205072	-0.00039351
4203719	-0.00305617	-0.0225779	0.00172102
4203729	-0.00317931	-0.0235858	0.00387239
4203739	-3.50475e-05	-0.0235533	0.00512636
4203749	0.00109494	-0.022517	0.00410116
4203759	8.73804e-05	-0.0214847	0.00294769
4203769	-0.00211239	-0.0214626	0.00388169
4203779	-0.0033673	-0.0213854	0.00700343
4203789	-0.00342941	-0.0213591	0.00806534
4203799	-0.00223565	-0.0224704	0.00603282
4203809	-3.50475e-05	-0.0235533	0.00512636
4203818	-0.00129008	-0.0234761	0.00824809
4203828	-0.00248301	-0.0234256	0.010308
4203838	-0.00128925	-0.0245368	0.00827539
4203848	-0.00210977	-0.0246445	0.00396371
4203858	-0.00311553	-0.0257335	0.00286508
4203868	-0.0032388	-0.0267415	0.00501645
4203878	-0.00235546	-0.0277209	0.00829351
4203888	-0.00027895	-0.028751	0.00951099
4203898	0.00191975	-0.0277127	0.00854969
4203908	0.000910521	-0.0245591	0.00734162
4203918	-0.00229681	-0.0235046	0.00712216
4203928	-0.00342762	-0.0234803	0.00812006
4203938	-0.00449646	-0.0234823	0.00805604
4203948	-0.00336552	-0.0235066	0.00705814
4203958	-0.00116682	-0.0224682	0.00609684
4203968	-0.00116765	-0.0214076	0.00606954
4203978	-0.0033052	-0.0214118	0.00594151
4203988	-0.00758135	-0.0203593	0.00565791
4203998	-0.0065763	-0.0182097	0.00672913
4204008	-0.00330877	-0.0171691	0.00583196
4204018	-4.12464e-05	-0.0161288	0.00493479
4204028	-4.22001e-05	-0.0150681	0.00490737
4204038	-0.00117385	-0.013983	0.00587797
4204048	-0.00016892	-0.0118333	0.00694907
4204058	0.00303924	-0.0139484	0.00719607
4204068	0.00316334	-0.0140013	0.00507224
4204078	0.00328577	-0.0119326	0.00289345
4204088	0.00334513	-0.00877702	0.00174952
4204098	0.00221348	-0.00769222	0.00272
4204108	0.00215137	-0.00766587	0.00378203
4204118	0.00315714	-0.00657666	0.00488067
4204128	0.00214958	-0.00554454	0.00372732
4204138	0.000197291	-0.00456703	0.00038588
4204148	0.000321507	-0.00461984	-0.00173807
4204158	0.000319839	-0.00249851	-0.00179279
4204168	0.00138593	0.000685453	-0.00181067
4204178	0.0024538	0.0017482	-0.00177407
4204188	0.00346136	0.00071609	-0.000620604
4204198	0.00559986	-0.000340462	-0.000465274
4204208	0.00660479	0.00180936	0.000605941
4204218	0.00666511	0.00390422	-0.000510693
4204228	0.00559628	0.00390208	-0.000574708
4204238	0.00452852	0.00283945	-0.000611424
4204248	0.00553775	-0.000314116	0.000596642
4204258	0.00666952	-0.00139904	-0.00037384
4204268	0.00666869	-0.000338316	-0.000401258
4204278	0.0035218	0.00281096	-0.00173748
4204288	0.00144529	0.00384104	-0.00295472
4204298	0.00144625	0.00278044	-0.00292742
4204308	0.00339842	0.00180316	0.000413895
4204318	0.00434494	-0.000263453	0.00265646
4204328	0.00547469	0.000772834	0.00163126
4204338	0.00553679	0.000746489	0.000569344
4204348	0.00566101	0.000693679	-0.00155461
4204358	0.00459146	0.00175238	-0.00164604
4204368	0.00572217	0.00172806	-0.00264394
4204378	0.00898993	0.00276852	-0.00354111
4204388	0.0111275	0.00277269	-0.00341308
4204398	0.00785899	0.00279284	-0.00254333
4204408	0.00471556	0.00169969	-0.00376987
4204418	0.00358462	0.001724	-0.00277197
4204428	0.000377417	0.00277841	-0.00299156
4204438	0.000439525	0.00275207	-0.00405347
4204448	0.00251758	-0.00039947	-0.00278127
4204458	0.0035882	-0.00251865	-0.00266254
4204468	0.00251842	-0.00146019	-0.00275385
4204478	-0.000687957	-0.00146627	-0.00294602
4204488	-0.00181878	-0.00144207	-0.00194812
4204498	0.000380874	-0.00146425	-0.002882
4204508	0.0014497	-0.00146222	-0.00281787
4204518	0.0014497	-0.00146222	-0.00281787
4204528	0.000256777	-0.00141144	-0.000758052
4204538	-0.000874162	-0.00138712	0.000239849
4204548	-0.000812888	-0.00035274	-0.000849485
4204558	-0.000814676	0.00176859	-0.000904202
4204568	0.00132215	0.00283325	-0.000803471
4204578	0.00358379	0.00278461	-0.00279939
4204588	0.00377083	0.00164497	-0.00595772
4204598	0.00377345	-0.00153708	-0.00587559
4204608	0.0037744	-0.00259769	-0.00584829
4204618	0.00258231	-0.00360775	-0.00376105
4204628	0.00132656	-0.00247002	-0.000666618
4204638	-0.000810266	-0.00353467	-0.00076735
4204648	-0.000685334	-0.00464821	-0.002864
4204658	0.000446558	-0.00573313	-0.00383449
4204668	0.00163949	-0.0057838	-0.00589418
4204678	0.000632763	-0.00581217	-0.00702035
4204688	-0.00055933	-0.00682211	-0.004933
4204698	-0.000746369	-0.00568247	-0.00177467
4204708	-0.000683546	-0.00676942	-0.00280917
4204718	0.000387073	-0.00888872	-0.00269043
4204728	0.000386238	-0.00782812	-0.00271785
4204738	0.000447392	-0.00679374	-0.00380707
4204748	0.000385284	-0.00676739	-0.00274515
4204758	-0.000622272	-0.00573516	-0.0038985
4204768	-0.00156701	-0.00579	-0.00608635
4204778	-0.00471044	-0.00688314	-0.00731301
4204788	-0.0037657	-0.00682831	-0.00512505
4204798	-0.000558376	-0.00788283	-0.0049057
4204808	0.00264883	-0.00893736	-0.00468612
4204818	0.00158095	-0.0100001	-0.00472283
4204828	-0.00175059	-0.00889289	-0.00281847
4204838	-0.00288212	-0.00780797	-0.00184798
4204848	-0.00187552	-0.00777948	-0.000721931
4204858	0.000324249	-0.00780177	-0.00165594
4204868	0.00258851	-0.0110323	-0.00356948
4204878	0.00252724	-0.0120666	-0.00248027
4204888	0.0013957	-0.0109817	-0.00150967
4204898	-0.000744581	-0.0078038	-0.00171995
4204908	-0.00275981	-0.00573933	-0.00402653
4204918	-0.00162899	-0.00576365	-0.00502443
4204928	-0.00275898	-0.00679994	-0.00399911
4204938	-0.00382781	-0.00680196	-0.00406313
4204948	-0.00162816	-0.00682425	-0.00499701
4204958	-0.000558376	-0.00788283	-0.0049057
4204968	-0.000620484	-0.00785649	-0.00384378
4204978	-0.000684381	-0.00570881	-0.00283659
4204988	0.000383496	-0.00464618	-0.00279999
4204998	0.00145149	-0.00358343	-0.00276315
4205008	0.0025202	-0.0035814	-0.00269914
4205018	0.00138867	-0.00249648	-0.00172865
4205028	-0.00181961	-0.000381351	-0.00197554
4205038	-0.00288832	-0.000383377	-0.00203955
4205048	-0.00169468	-0.00149477	-0.00407195
4205058	-0.001755	-0.00358963	-0.00295532
4205068	-0.00395632	-0.00144613	-0.00207615
4205078	-0.00508904	0.00069952	-0.00113285
4205088	-0.00615859	0.00175822	-0.0012244
4205098	-0.00502694	0.000673056	-0.00219488
4205108	-0.00295138	0.000703692	-0.00100482
4205118	-0.000876784	0.00179493	0.000157714
4205128	-0.000815511	0.00282919	-0.000931621
4205138	-0.00175941	0.00171363	-0.00309217
4205148	-0.00377011	-0.00152516	-0.0052619
4205158	-0.0049001	-0.00256157	-0.0042367
4205168	-0.00609469	-0.000389576	-0.00223172
4205178	-0.00515199	0.00178659	-9.83477e-05
4205188	-0.000938892	0.00182128	0.00121963
4205198	0.00126088	0.00179899	0.000285864
4205208	0.000378251	0.00171781	-0.00296414
4205218	-0.000689745	0.000655055	-0.00300074
4205228	-0.00181961	-0.000381351	-0.00197554
4205238	0.000317097	0.000683427	-0.0018748
4205248	0.00251663	0.000661135	-0.00280857
4205258	0.00371146	-0.00151074	-0.00481367
4205268	0.0037744	-0.00259769	-0.00584829
4205278	0.000629187	-0.00156963	-0.00712979
4205288	-0.00150931	-0.000513077	-0.00728524
4205298	-0.00050354	0.000576019	-0.00618649
4205308	0.00151098	-0.000427842	-0.0039072
4205318	0.00465608	-0.00145602	-0.00262582
4205328	0.00667131	-0.00352025	-0.000319123
4205338	0.00665784	-0.00456512	-0.000282049
4205348	0.00363863	-0.0057112	-0.00363255
4205358	0.00376272	-0.00576389	-0.0057565
4205368	0.00483322	-0.00788307	-0.00563776
4205378	0.00691056	-0.009974	-0.0043931
4205388	0.00697088	-0.00787902	-0.00550973
4205398	0.00501776	-0.0058409	-0.00887835
4205408	0.00288093	-0.00690567	-0.00897908
4205418	0.00169063	-0.0100369	-0.00683701
4205428	0.00163114	-0.0131927	-0.00569296
4205438	0.00276124	-0.0121562	-0.00671828
4205448	0.0038904	-0.0100592	-0.00777102
4205458	0.00275946	-0.0100349	-0.00677299
4205468	-0.000445962	-0.0111018	-0.00693774
4205478	-0.00145268	-0.0111302	-0.00806379
4205488	0.000685811	-0.0121866	-0.00790846
4205498	0.000685811	-0.0121866	-0.00790846
4205508	-0.00151396	-0.0121645	-0.00697446
4205518	-0.000506401	-0.0131968	-0.00582111
4205528	0.00169325	-0.013219	-0.00675488
4205538	0.00395501	-0.0132678	-0.0087508
4205548	0.00502384	-0.0132656	-0.00868678
4205558	0.00603247	-0.0153584	-0.00750613
4205568	0.00609362	-0.0143242	-0.00859547
4205578	0.00502217	-0.0111443	-0.0087415
4205588	0.00495744	-0.00793576	-0.00776172
4205598	0.00589943	-0.00469899	-0.00565588
4205608	0.00577533	-0.0046463	-0.00353193
4205618	0.00684512	-0.005705	-0.0034405
4205628	0.00791562	-0.00782418	-0.00332165
4205638	0.00684595	-0.0067656	-0.0034132
4205648	0.00684512	-0.005705	-0.0034405
4205658	0.00577712	-0.00676763	-0.00347722
4205668	0.00583994	-0.0078547	-0.00451183
4205678	0.00590384	-0.0100024	-0.00551903
4205688	0.00691056	-0.009974	-0.0043931
4205698	0.00571585	-0.00780189	-0.00238788
4205708	0.00351441	-0.00565839	-0.00150871
4205718	0.00351167	-0.00247633	-0.00159085
4205728	0.00363421	-0.000407815	-0.0037694
4205738	0.00262821	-0.00149691	-0.00486815
4205748	0.00149918	-0.00359392	-0.00381541
4205758	0.00244462	-0.00459969	-0.00160015
4205768	0.00345135	-0.00457132	-0.000474095
4205778	0.00244379	-0.00353909	-0.00162756
4205788	0.00256705	-0.00253117	-0.0037787
4205798	0.0047065	-0.00464833	-0.00359595
4205808	0.00464618	-0.00674319	-0.00247931
4205818	0.00137675	-0.00566244	-0.00163674
4205828	0.00131464	-0.0056361	-0.000574708
4205838	0.0033282	-0.00557935	0.00167716
4205848	0.00320578	-0.00764787	0.00385582
4205858	0.00207579	-0.00868416	0.00488114
4205868	-0.00012207	-0.0107833	0.00586975
4205878	-0.002321	-0.0118217	0.00683093
4205888	-0.0035131	-0.0128318	0.00891829
4205898	-0.000367761	-0.0138597	0.0101995
4205908	-0.000428915	-0.0148941	0.011289
4205918	-0.00149596	-0.0170176	0.0112797
4205928	-0.0014348	-0.0159832	0.0101902
4205938	-0.000366926	-0.0149205	0.010227
4205948	0.000576854	-0.013805	0.0123876
4205958	0.000513792	-0.0127181	0.0134224
4205968	0.00164473	-0.0127424	0.0124243
4205978	0.0028404	-0.015975	0.0104464
4205988	0.00290418	-0.0181228	0.00943935
4205998	0.00277841	-0.0159487	0.0115085
4206008	0.000453472	-0.0148131	0.014539
4206018	-0.00168407	-0.0148172	0.0144109
4206028	-0.00162101	-0.0159042	0.0133762
4206038	-0.000615239	-0.0148151	0.0144749
4206048	-0.000679016	-0.0126673	0.0154821
4206058	-0.00193584	-0.0104691	0.0185492
4206068	-0.00312793	-0.011479	0.0206364
4206078	-0.00419676	-0.011481	0.0205724
4206088	-0.0051415	-0.0115358	0.0183845
4206098	-0.00721705	-0.0115663	0.0171944
4206108	-0.00621033	-0.0115379	0.0183204
4206118	-0.00727916	-0.0115399	0.0182563
4206128	-0.00941586	-0.0126048	0.0181557
4206138	-0.00721788	-0.0105057	0.0171671
4206148	-0.00721884	-0.00944495	0.0171397
4206158	-0.00840986	-0.0115156	0.0192543
4206168	-0.00840807	-0.0136369	0.019309
4206178	-0.00608349	-0.0147727	0.0162787
4206188	-0.00583696	-0.0127568	0.0119761
4206198	-0.006724	-0.00753462	0.00858927
4206208	-0.00773323	-0.00438094	0.0073812
4206218	-0.00666451	-0.00437891	0.00744522
4206228	-0.00553274	-0.00546396	0.00647473
4206238	-0.00434327	-0.00127184	0.00430536
4206248	-0.00428379	0.00188386	0.00316131
4206258	-0.00422263	0.002918	0.00207198
4206268	-0.00208497	0.00292206	0.00220001
4206278	-0.00409937	0.00392604	-7.93934e-05
4206288	-0.00403821	0.0049603	-0.00116861
4206298	0.000362158	0.00385523	-0.0030092
4206308	0.00256181	0.00383282	-0.00394297
4206318	0.00356948	0.00280058	-0.00278962
4206328	0.00552094	0.00288379	0.000524282
4206338	0.00658977	0.00288582	0.000588298
4206348	0.00765765	0.00394869	0.000625014
4206358	0.00853944	0.00509048	0.0038476
4206368	0.00942087	0.00623226	0.00707006
4206378	0.0114965	0.00626278	0.00826013
4206388	0.0126878	0.00833344	0.00614548
4206398	0.0149497	0.00828493	0.00414968
4206408	0.0160193	0.00722623	0.00424111
4206418	0.0158951	0.00727892	0.00636506
4206428	0.0179706	0.00730932	0.00755501
4206438	0.0179068	0.00945711	0.00856233
4206448	0.0168973	0.0126107	0.00735414
4206458	0.0158881	0.0157644	0.00614607
4206468	0.017018	0.0168006	0.00512075
4206478	0.0192195	0.0146571	0.00424159
4206488	0.0193436	0.0146043	0.00211763
4206498	0.0185834	0.0165917	-0.00331092
4206508	0.0155606	0.0196886	-0.00677085
4206518	0.012473	0.0259936	-0.00925124
4206528	0.0114627	0.0302078	-0.0104867
4206538	0.0104551	0.0312401	-0.0116401
4206548	0.00850201	0.0332783	-0.0150087
4206558	0.0101295	0.033043	-0.0245023
4206568	0.0108097	0.0359349	-0.036266
4206578	0.0111147	0.0421672	-0.0417399
4206588	0.0101684	0.0442338	-0.0439826
4206598	0.00903833	0.0431973	-0.0429575
4206608	0.00684035	0.0410982	-0.0419687
4206618	0.00797212	0.0400132	-0.0429394
4206628	0.010233	0.0410254	-0.0449624
4206638	0.0104804	0.0419806	-0.0492377
4206648	0.00865316	0.0418446	-0.0546757
4206658	0.00550866	0.0418121	-0.0559297
4206668	0.00431311	0.0450447	-0.0539519
4206678	0.00425017	0.0461317	-0.0529172
4206688	0.0043149	0.0429233	-0.0538971
4206698	0.00211525	0.0429455	-0.0529634
4206708	0.00205243	0.0440327	-0.0519286
4206718	0.00211442	0.0440062	-0.0529907
4206728	0.000860214	0.0430226	-0.0498415
4206738	-0.00359869	0.0399114	-0.0468297
4206748	-0.00692654	0.0367761	-0.0448157
4206758	-0.00591886	0.0357437	-0.0436624
4206768	-0.00271165	0.0346893	-0.0434428
4206778	-0.00164104	0.0325701	-0.0433241
4206788	0.00383592	0.0219209	-0.044854
4206798	0.00787175	0.0114279	-0.0400765
4206808	0.00631261	0.00421214	-0.0314533
4206818	0.000534773	0.0033257	-0.0243124
4206828	-0.0038681	0.00761282	-0.022554
4206838	-0.00487661	0.00970578	-0.0237348
4206848	-0.00481558	0.0107402	-0.0248241
4206858	-0.0048784	0.0118271	-0.0237895
4206868	-0.00500083	0.00975859	-0.0216109
4206878	-0.00518525	0.0077163	-0.0183703
4206888	-0.00537062	0.00673473	-0.015157
4206898	-0.0056181	0.0057795	-0.0108819
4206908	-0.00680912	0.00370896	-0.00876725
4206918	-0.00793827	0.00161183	-0.00771439
4206928	-0.0068686	0.00055325	-0.00762308
4206938	-0.00485528	0.000609994	-0.00537109
4206948	-0.00170815	-0.0025394	-0.00403488
4206958	-0.00170457	-0.00678205	-0.00392544
4206968	-0.00157785	-0.0100168	-0.00596726
4206978	-0.0015769	-0.0110775	-0.00593984
4206988	-0.00264668	-0.0100188	-0.00603127
4206998	-0.00371552	-0.0100209	-0.00609529
4207008	-0.00472224	-0.0100493	-0.00722122
4207018	-0.00578928	-0.0121727	-0.00723064
4207028	-0.00679505	-0.0132618	-0.00832927
4207038	-0.00780094	-0.014351	-0.00942791
4207048	-0.00773883	-0.0143774	-0.0104899
4207058	-0.00566161	-0.0164682	-0.00924516
4207068	-0.00358427	-0.0185589	-0.00800025
4207078	-0.00578403	-0.0185367	-0.00706637
4207088	-0.00923777	-0.0194981	-0.00298333
4207098	-0.0105531	-0.0215161	0.00125515
4207108	-0.0109832	-0.0266348	0.00882578
4207118	-0.00826895	-0.031721	0.0176504
4207127	-0.00763309	-0.0336558	0.0252029
4207137	-0.0103904	-0.034457	0.0357218
4207147	-0.0122645	-0.0362376	0.049518
4207157	-0.0117517	-0.0391802	0.0592217
4207167	-0.0107423	-0.0423337	0.0604298
4207177	-0.0162106	-0.0422914	0.0622334
4207187	-0.0230597	-0.0399977	0.0692283
4207197	-0.0248114	-0.0397099	0.0808458
4207207	-0.0233566	-0.0394157	0.0926555
4207217	-0.0215923	-0.0381927	0.099128
4207227	-0.0219673	-0.0348525	0.105418
4207237	-0.0244801	-0.0315163	0.111579
4207247	-0.0245386	-0.0357326	0.112751
4207257	-0.0243498	-0.0389938	0.109647
4207267	-0.0230956	-0.0380101	0.106498
4207277	-0.0209599	-0.0358846	0.106571
4207287	-0.0198289	-0.0359089	0.105573
4207297	-0.0174438	-0.0349497	0.101426
4207307	-0.0127357	-0.0330046	0.0941936
4207317	-0.00796652	-0.0300254	0.0858719
4207327	-0.00564706	-0.024797	0.0826772
4207337	-0.00577664	-0.0183803	0.084637
4207347	-0.00558937	-0.0195202	0.0814785
4207357	-0.00307679	-0.0228561	0.075317
4207367	-0.00176144	-0.0208381	0.0710784
4207377	-0.00384128	-0.0155653	0.0697515
4207387	-0.00497305	-0.0144804	0.070722
4207397	-0.000573754	-0.0145249	0.0688543
4207407	0.00394893	-0.0135614	0.0648353
4207417	0.006459	-0.0137155	0.0585916
4207427	0.00576365	-0.0149363	0.0521832
4207437	0.0059489	-0.0139549	0.04897
4207447	0.00820887	-0.0118822	0.0469193
4207457	0.0106552	-0.00988853	0.0416828
4207467	0.0132877	-0.00797391	0.0332605
4207477	0.0191292	-0.00923526	0.0251124
4207487	0.0216384	-0.00832856	0.0188413
4207497	0.021822	-0.00522578	0.0155734
4207507	0.0196196	-0.00202143	0.0164251
4207517	0.018361	0.00229824	0.0194374
4207527	0.0172284	0.00444376	0.0203806
4207537	0.0162225	0.00335467	0.019282
4207547	0.0174155	0.003304	0.0172222
4207557	0.0184816	0.0064882	0.017204
4207567	0.0184169	0.0096966	0.0181839
4207577	0.0162163	0.0107794	0.0190904
4207587	0.0140796	0.00971472	0.0189898
4207597	0.0162189	0.00759733	0.0191725
4207607	0.0172266	0.00656509	0.0203259
4207617	0.0172877	0.00759935	0.0192366
4207627	0.0162802	0.00863171	0.0180832
4207637	0.014203	0.0107226	0.0168386
4207647	0.0142641	0.011757	0.0157491
4207657	0.0153329	0.011759	0.0158131
4207667	0.0152079	0.0128723	0.0179098
4207677	0.0140778	0.0118361	0.018935
4207687	0.0120022	0.0118055	0.0177449
4207697	0.0098629	0.0139227	0.0175622
4207707	0.00784957	0.0138659	0.0153102
4207717	0.0089829	0.0106595	0.0143944
4207727	0.0134472	0.00740659	0.0115469
4207737	0.0158339	0.00624466	0.00745428
4207747	0.0159537	0.0114954	0.00519359
4207757	0.0170207	0.0136187	0.00520289
4207767	0.0206696	0.00389433	-0.00179243
4207777	0.0209241	-0.00363588	-0.00584865
4207787	0.0175349	-0.00780571	-0.00274539
4207797	0.0140172	-0.00661933	0.00234485
4207807	0.0107442	-0.00129592	0.00307786
4207817	0.0076586	0.00288796	0.000652432
4207827	0.00671387	0.00283313	-0.00153565
4207837	0.00992191	0.000717998	-0.00128877
4207847	0.00979877	-0.000289917	0.000862598
4207857	0.00766122	-0.00029397	0.000734568
4207867	0.0033859	-0.000302315	0.000478387
4207877	0.00131023	-0.000332713	-0.00071156
4207887	0.00137317	-0.00141978	-0.0017463
4207897	0.00244284	-0.00247836	-0.00165486
4207907	0.00250769	-0.00568676	-0.00263464
4207917	0.00150263	-0.00783658	-0.00370586
4207927	0.00144053	-0.00781012	-0.00264394
4207937	0.00137675	-0.00566244	-0.00163674
4207947	0.00143969	-0.00674939	-0.00267136
4207957	-0.00057292	-0.0078671	-0.00489604
4207967	-0.00044775	-0.00898039	-0.00699258
4207977	-0.00050807	-0.0110755	-0.00587583
4207987	0.00150621	-0.0120792	-0.00359643
4207997	0.0015682	-0.0121056	-0.00465846
4208007	0.00169241	-0.0121583	-0.00678229
4208017	-0.000445127	-0.0121624	-0.00691044
4208027	-0.00157607	-0.0121381	-0.00591254
4208037	-0.00163901	-0.0110512	-0.00487792
4208047	-0.00157785	-0.0100168	-0.00596726
4208057	-0.00270963	-0.00893176	-0.00499678
4208067	-0.00377846	-0.00893378	-0.00506079
4208077	-0.00484645	-0.00999665	-0.00509739
4208087	-0.00270879	-0.00999248	-0.00496936
4208097	-0.00157785	-0.0100168	-0.00596726
4208107	-0.000385642	-0.00900674	-0.00805461
4208117	-0.000446916	-0.0100411	-0.00696516
4208127	-0.000570178	-0.0110492	-0.00481391
4208137	0.000497699	-0.00998628	-0.00477731
4208147	0.00056076	-0.0110734	-0.00581181
4208157	0.000499487	-0.0121076	-0.0047226
4208167	0.000500321	-0.0131683	-0.00469518
4208177	-0.000632167	-0.0110228	-0.00375187
4208187	-0.00164175	-0.00786912	-0.00496006
4208197	-0.00271142	-0.00681043	-0.00505149
4208207	-0.00264847	-0.0078975	-0.00608599
4208217	-0.00151753	-0.00792181	-0.00708389
4208227	0.00168979	-0.00897622	-0.00686443
4208237	0.00483418	-0.00894368	-0.00561047
4208247	0.00483239	-0.00682235	-0.00566518
4208257	0.00376356	-0.00682449	-0.0057292
4208267	0.00376356	-0.00682449	-0.0057292
4208277	0.00470829	-0.00676966	-0.00354123
4208287	0.00672257	-0.00777352	-0.00126195
4208297	0.00773108	-0.00986636	-8.10623e-05
4208307	0.00660121	-0.0109029	0.000944138
4208317	0.0055306	-0.00878346	0.000825286
4208327	0.00565207	-0.00565422	-0.00138068
4208337	0.00577533	-0.0046463	-0.00353193
4208347	0.00489271	-0.00472736	-0.00678182
4208357	0.00376177	-0.00470316	-0.00578392
4208367	0.00382209	-0.00260818	-0.00690055
4208377	0.000798464	0.00154924	-0.0103881
4208387	-0.00133741	-0.000576258	-0.0104614
4208397	0.000617504	-0.00473559	-0.007038
4208407	0.0026921	-0.00364459	-0.00587535
4208417	0.00375998	-0.00258183	-0.00583863
4208427	0.00489008	-0.00154543	-0.00686395
4208437	0.00696564	-0.00151503	-0.005674
4208447	0.0101099	-0.00148249	-0.00441992
4208457	0.010235	-0.00259578	-0.00651634
4208467	0.00816047	-0.0036869	-0.0076791
4208477	0.00929034	-0.00265062	-0.0087043
4208487	0.0104203	-0.00161433	-0.00972974
4208497	0.00928688	0.00159204	-0.00881374
4208507	0.00815523	0.00267708	-0.00784326
4208517	0.00953698	-0.00063467	-0.0130069
4208527	0.0120471	-0.000788808	-0.0192506
4208537	0.0121676	0.00340104	-0.0214841
4208547	0.00990331	0.00663173	-0.0195702
4208557	0.0097152	0.00883222	-0.0164391
4208567	0.0116665	0.00891542	-0.0131252
4208577	0.0134931	0.010112	-0.00771475
4208587	0.0123612	0.0111971	-0.00674415
4208597	0.00927985	0.0100774	-0.00903273
4208607	0.00833702	0.00790131	-0.011166
4208617	0.0104736	0.00896609	-0.0110652
4208627	0.0114164	0.0111421	-0.00893211
4208637	0.0103468	0.0122007	-0.00902343
4208647	0.00720334	0.0111076	-0.0102503
4208657	0.00601041	0.0111583	-0.00819039
4208667	0.00607157	0.0121925	-0.00927961
4208677	0.00600874	0.0132797	-0.00824511
4208687	0.00487685	0.0143646	-0.00727439
4208697	0.00695336	0.0133344	-0.00605714
4208707	0.0100976	0.0133669	-0.00480306
4208717	0.0122353	0.0133711	-0.00467503
4208727	0.0112294	0.0122819	-0.00577354
4208737	0.00915313	0.0133122	-0.00699091
4208747	0.00820744	0.014318	-0.00920618
4208757	0.00927722	0.0132594	-0.00911486
4208767	0.00821185	0.00901473	-0.00906932
4208777	0.00827491	0.00792766	-0.0101041
4208787	0.00928068	0.00901675	-0.00900531
4208797	0.0103494	0.00901878	-0.00894129
4208807	0.013618	0.00899863	-0.00981128
4208817	0.0147489	0.00897431	-0.0108091
4208827	0.0132394	0.0165814	-0.00363111
4208837	0.00141799	0.0361276	0.0143512
4208847	-0.000394821	0.0353812	0.0270582
4208857	0.0016309	0.0205886	0.0296932
4208867	0.00258446	0.0100368	0.0321549
4208877	0.00101995	0.00918496	0.0406139
4208887	0.00247204	0.0126612	0.0523413
4208897	0.00524235	0.0149733	0.0599126
4208907	0.00631106	0.0149753	0.0599766
4208917	0.0085746	0.0128055	0.0580354
4208927	0.00839186	0.00864172	0.0613308
4208937	0.0102822	0.00769067	0.065734
4208947	0.011163	0.00989318	0.0689293
4208957	0.0101545	0.011986	0.0677485
4208967	0.0114104	0.0108485	0.0646541
4208977	0.0148677	0.00756705	0.0606804
4208987	0.0173175	0.00531805	0.0555534
4208997	0.0162487	0.00531602	0.0554893
4209007	0.0139248	0.005391	0.0585471
4209017	0.013924	0.00645161	0.0585198
4209027	0.0159996	0.00648212	0.0597098
4209037	0.0170702	0.00436282	0.0598286
4209047	0.0173813	0.00317037	0.0545462
4209057	0.0200164	0.00190282	0.0462059
4209067	0.0215819	0.00169396	0.0377743
4209077	0.0208846	0.00259447	0.0313112
4209087	0.0210071	0.00466311	0.0291325
4209097	0.0188073	0.00468528	0.0300664
4209107	0.0186841	0.00367725	0.0322177
4209117	0.0310733	-0.0103525	0.0226582
4209127	0.0426348	-0.0160042	0.00856793
4209137	0.0450802	-0.0129501	0.00330412
4209147	0.0417478	-0.0107821	0.00518131
4209157	0.0405532	-0.00861001	0.00718641
4209167	0.038412	-0.0043714	0.00694883
4209177	0.0343202	-0.00127685	0.00342464
4209187	0.0302907	0.00179148	-0.00116134
4209197	0.0294073	0.0027709	-0.00443864
4209207	0.0305382	0.00274658	-0.00543654
4209217	0.0295315	0.00271821	-0.00656259
4209227	0.0284643	0.000594854	-0.00657189
4209237	0.0274584	-0.000494242	-0.0076704
4209247	0.0267009	-0.00168884	-0.0130171
4209257	0.0238049	-0.00182676	-0.0185189
4209267	0.0230472	-0.00302136	-0.0238653
4209277	0.0244282	-0.00527239	-0.0290564
4209287	0.0234835	-0.00532722	-0.0312443
4209297	0.0214692	-0.00432348	-0.0335238
4209307	0.00964546	-0.0153768	-0.0510099
4209317	-0.00138474	-0.027223	-0.100419
4209327	0.0123461	-0.0131947	-0.13408
4209337	0.0319498	0.0125905	-0.121839
4209347	0.0406955	0.0182815	-0.106532
4209357	0.03158	0.00956666	-0.115385
4209367	0.0166082	0.00272357	-0.134235
4209377	0.00779319	0.00554419	-0.148698
4209387	0.0057745	0.0118514	-0.151115
4209397	0.0120596	0.0161591	-0.148716
4209407	0.0203583	0.0205238	-0.144065
4209417	0.0283502	0.0207776	-0.133995
4209427	0.0303799	0.0181026	-0.113544
4209437	0.0288298	0.0166404	-0.0869403
4209447	0.0286587	0.0150485	-0.0655824
4209457	0.0225095	0.0132596	-0.0520422
4209467	0.0133408	0.0103248	-0.041853
4209477	0.00686765	0.00821757	-0.0411203
4209487	0.00906837	0.00713456	-0.042027
4209497	0.0150467	0.00733149	-0.034209
4209507	0.0172582	0.0098809	-0.0170802
4209517	0.016327	0.0102764	-0.00115085
4209527	0.0125016	0.00841248	0.00933135
4209537	0.00320613	0.00871253	0.0215626
4209547	-0.0103016	0.00791705	0.0325031
4209557	-0.0224284	0.00487065	0.0382526
4209567	-0.0292155	0.00713789	0.0441854
4209577	-0.0278262	0.011701	0.0569476
4209587	-0.0160575	0.0142953	0.0757146
4209597	-0.0106361	0.0126082	0.0931449
4209607	-0.0101854	0.00969183	0.103911
4209617	-0.0116879	0.00881374	0.111308
4209627	-0.0139487	0.00780165	0.113331
4209637	-0.0120604	0.00897193	0.117679
4209647	-0.012869	0.011436	0.13143
4209657	-0.0160611	0.0108194	0.149383
4209667	-0.0144759	0.00363624	0.15926
4209677	-0.011265	-0.00166094	0.159589
4209687	-0.0100704	-0.00383306	0.157584
4209697	-0.00793374	-0.00276816	0.157685
4209707	-0.007177	-0.000512958	0.163004
4209717	-0.00660658	0.00182128	0.171509
4209727	-0.00691605	0.000892401	0.176846
4209737	-0.0092994	-0.00218809	0.181048
4209747	-0.0125686	-0.00110734	0.18189
4209757	-0.0125102	0.00310898	0.180719
4209767	-0.012886	0.00750983	0.186981
4209777	-0.0136939	0.00891328	0.200759
4209787	-0.0155698	0.0092541	0.214501
4209797	-0.0135553	0.00825012	0.21678
4209807	-0.014124	0.00379455	0.20833
4209817	-0.0157599	-0.00278449	0.19987
4209827	-0.0153821	-0.00930667	0.193663
4209837	-0.0152571	-0.0104201	0.191566
4209847	-0.0154459	-0.00715899	0.19467
4209857	-0.0183967	0.000604391	0.208156
4209867	-0.0183238	0.00421011	0.225129
4209877	-0.0125299	0.00236487	0.236187
4209887	-0.00843549	-0.00391173	0.239794
4209897	-0.00812256	-0.00722563	0.234566
4209907	-0.00574267	9.77516e-05	0.230255
4209917	-0.00468087	0.0085851	0.2301
4209927	-0.00681853	0.00858092	0.229972
4209937	-0.00781918	0.00112796	0.229037
4209947	-0.00693393	-0.00197291	0.232369
4209957	-0.00510931	0.00134504	0.237725
4209967	-0.00429153	0.0046345	0.241955
4209977	-0.00202787	0.00246465	0.240014
4209987	-0.00159156	0.000158787	0.232635
4209997	-0.00109506	-5.22137e-05	0.224139
4210007	-0.001544	0.000742674	0.213428
4210017	0.000334382	-0.00277996	0.199769
4210027	0.00334466	-0.00738764	0.185139
4210037	0.00861049	-0.00461924	0.168321
4210047	0.0138125	0.000296831	0.152511
4210057	0.0165088	6.36578e-05	0.143082
4210067	0.0204663	-0.00767136	0.130722
4210077	0.0268089	-0.0144469	0.114215
4210087	0.0284984	-0.0147084	0.10366
4210097	0.0257257	-0.0138384	0.0960062
4210107	0.0229564	-0.0172113	0.0884626
4210117	0.0193053	-0.0217258	0.0776962
4210127	0.013068	-0.0254495	0.056091
4210137	0.0170624	-0.0198724	0.024196
4210147	0.036203	-0.0101029	-0.0100977
4210157	0.0467491	-0.00517654	-0.0255878
4210167	0.0396444	-0.0106525	-0.0322709
4210177	0.0232315	-0.0173395	-0.0448128
4210187	0.0157965	-0.0157092	-0.0644952
4210197	0.0243876	-0.00662327	-0.0834085
4210207	0.0356292	-0.000476122	-0.09249
4210217	0.0398442	-0.00256276	-0.091117
4210227	0.0314859	-0.0100831	-0.0946237
4210237	0.0204774	-0.0146648	-0.107962
4210247	0.016311	-0.0130547	-0.128514
4210257	0.0144047	-0.00937188	-0.151117
4210267	0.0182292	-0.00644732	-0.161627
4210277	0.0194248	-0.00968003	-0.163604
4210287	0.0152117	-0.00971472	-0.164922
4210297	0.0130723	-0.00759757	-0.165105
4210307	0.0160916	-0.00645149	-0.161755
4210317	0.0172198	-0.00329375	-0.162835
4210327	0.0175915	-0.00239122	-0.169234
4210337	0.0209219	-0.00243795	-0.171166
4210347	0.0223759	-0.00108314	-0.159383
4210357	0.0212586	-0.000608444	-0.140268
4210367	0.0183157	-0.00239122	-0.126536
4210377	0.0138552	-0.00338101	-0.123579
4210387	0.0137913	-0.00123322	-0.122572
4210397	0.0147351	-0.000117779	-0.120411
4210407	0.0196446	7.70092e-05	-0.112657
4210417	0.0243661	0.00247228	-0.101772
4210427	0.0207864	0.00368512	-0.0956198
4210437	0.0180154	0.00243366	-0.103218
4210446	0.0175042	0.00325489	-0.112867
4210456	0.0143573	0.00640452	-0.114203
4210466	0.00951993	0.0108762	-0.105011
4210476	0.00682259	0.01217	-0.0956092
4210486	0.00776732	0.0122247	-0.0934212
4210496	0.00813973	0.0120665	-0.099793
4210506	0.0063746	0.0119042	-0.106293
4210516	0.00555325	0.0128574	-0.110632
4210526	0.000204682	0.0181504	-0.111089
4210536	-0.00381398	0.0248511	-0.0976399
4210546	0.00110996	0.0244355	-0.0717413
4210556	0.00848639	0.018589	-0.0508876
4210566	0.0115101	0.0144316	-0.0474001
4210576	0.0116334	0.0154395	-0.0495515
4210586	0.0104403	0.0154902	-0.0474916
4210596	0.0111341	0.0188324	-0.0411378
4210606	0.0157909	0.0244361	-0.0292729
4210616	0.0156769	0.0291818	-0.00914109
4210626	0.0112927	0.0275553	0.0108987
4210636	0.00828767	0.0257989	0.0256928
4210646	0.00848567	0.0282915	0.0405695
4210656	0.0111973	0.0263872	0.0493121
4210666	0.0133412	0.0189667	0.0496317
4210676	0.0134662	0.0178533	0.0475351
4210686	0.0100719	0.0200474	0.050474
4210696	0.00447953	0.0201427	0.0544019
4210706	0.00435793	0.0170134	0.056608
4210716	0.00668609	0.0116351	0.0536869
4210726	0.00674999	0.00948739	0.0526797
4210736	0.00794649	0.00519395	0.0507292
4210746	0.00706744	0.000870228	0.0475888
4210756	0.00398517	0.000811219	0.0452727
4210766	0.00203192	0.00284946	0.0419041
4210776	0.00410402	0.00712252	0.0429846
4210786	0.00498581	0.00826442	0.0462073
4210796	0.0046159	0.00524068	0.0526611
4210806	0.00550115	0.00213969	0.0559931
4210816	0.00776458	-3.02792e-05	0.0540519
4210826	0.00782585	0.0010041	0.0529627
4210836	0.00688124	0.000949264	0.0507747
4210846	0.007195	-0.00342524	0.0455743
4210856	0.010781	-0.0120627	0.0396136
4210866	0.0164416	-0.0196087	0.0348155
4210876	0.0187044	-0.0207181	0.0328472
4210886	0.0175707	-0.0175117	0.0337629
4210896	0.0175691	-0.0153904	0.0337081
4210906	0.0174432	-0.0132163	0.0357773
4210916	0.0171318	-0.0120238	0.0410599
4210926	0.0120397	-0.0163823	0.0366013
4210936	0.00222313	-0.0199541	0.0211756
4210946	-0.00187504	-0.025795	-0.000246882
4210956	-0.00157726	-0.0274377	-0.0236467
4210966	0.00167513	-0.0247263	-0.0427161
4210976	0.00449193	-0.0207695	-0.054379
4210986	0.00486267	-0.0188063	-0.0608054
4210996	0.00404227	-0.0189139	-0.0651175
4211006	0.00215375	-0.0200841	-0.0694659
4211016	0.00359058	-0.014937	-0.0759104
4211026	0.00383627	-0.0118604	-0.0802405
4211036	0.00414586	-0.0109315	-0.0855777
4211046	0.00652897	-0.00785089	-0.0897794
4211056	0.0108664	-0.00786901	-0.0905852
4211066	0.0131955	-0.014308	-0.0934789
4211076	0.0134474	-0.018656	-0.0976173
4211086	0.0179691	-0.016632	-0.101664
4211096	0.0256991	-0.016723	-0.105463
4211106	0.0285978	-0.019767	-0.0998793
4211116	0.0260904	-0.022795	-0.0935534
4211126	0.0185502	-0.0270257	-0.0928304
4211136	0.0113797	-0.0282327	-0.0985609
4211146	0.00860691	-0.0273627	-0.106214
4211156	0.00677538	-0.0221953	-0.111789
4211166	0.00375152	-0.0180379	-0.115276
4211176	0.00519097	-0.0160728	-0.121639
4211186	0.00932765	-0.0154014	-0.137403
4211196	0.0101328	-0.0136228	-0.151264
4211206	0.0103157	-0.00945926	-0.154559
4211216	0.0143435	-0.0104061	-0.150028
4211226	0.0184361	-0.0145617	-0.146476
4211236	0.0173079	-0.0177191	-0.145396
4211246	0.011018	-0.0167238	-0.147932
4211256	0.00723684	-0.0137608	-0.156766
4211266	0.00980556	-0.00969851	-0.164181
4211276	0.0155221	-0.00984645	-0.170232
4211286	0.0161428	-0.0101101	-0.180852
4211296	0.0116643	-0.00624692	-0.196149
4211306	0.0102671	-0.0012641	-0.209157
4211316	0.0138477	-0.00353742	-0.215282
4211326	0.0173078	-0.0100007	-0.219174
4211336	0.0181165	-0.0124648	-0.232925
4211346	0.0139511	-0.0119154	-0.253449
4211356	0.00632727	-0.00702405	-0.270028
4211366	0.00544202	-0.00392318	-0.27336
4211376	0.00852609	-0.00598562	-0.270989
4211386	0.00978363	-0.00924468	-0.274029
4211396	0.00933743	-0.0116316	-0.284658
4211406	0.00926447	-0.0152377	-0.301631
4211416	0.004848	-0.0114008	-0.31799
4211426	-2.14577e-06	-0.0084399	-0.326888
4211436	0.00250888	-0.00965476	-0.333104
4211446	0.00941491	-0.0056107	-0.341325
4211456	0.0187176	0.00196433	-0.335631
4211466	0.0240105	0.00563335	-0.316213
4211476	0.0230784	0.0070895	-0.300311
4211486	0.0218234	0.00716662	-0.297189
4211496	0.0208176	0.00607741	-0.298288
4211506	0.0217649	0.00295031	-0.296018
4211516	0.0267993	0.0020318	-0.290361
4211526	0.028499	0.00646317	-0.282909
4211536	0.0224066	0.0110118	-0.270595
4211546	0.0191516	0.0114824	-0.251607
4211556	0.0222456	0.0141129	-0.231229
4211566	0.0262853	0.0157374	-0.208635
4211576	0.0312712	0.0152956	-0.183798
4211586	0.0356274	0.00936377	-0.166322
4211596	0.037209	0.00642323	-0.156554
4211606	0.0343841	0.0120125	-0.145138
4211616	0.0277312	0.0189198	-0.123321
4211626	0.0237286	0.0228888	-0.0916725
4211636	0.0218645	0.0258011	-0.0598685
4211646	0.0193043	0.0285531	-0.0345001
4211656	0.0140996	0.0268191	-0.0187721
4211666	0.0104613	0.0238154	-0.0114485
4211676	0.01015	0.025008	-0.00616598
4211686	0.00738907	0.0284495	0.00424349
4211696	0.00230753	0.0277233	0.0178201
4211706	0.000374079	0.0227871	0.0327604
4211716	0.00063777	0.0210105	0.0466846
4211726	0.00127029	0.0233185	0.0541277
4211736	0.00196397	0.0266608	0.0604813
4211746	0.00146842	0.0258111	0.0690043
4211756	0.00216639	0.02385	0.0754949
4211766	0.000973463	0.0239006	0.0775548
4211776	0.000784636	0.0271617	0.0806586
4211786	-0.000720501	0.0294657	0.0879736
4211796	-0.00467277	0.0308365	0.100498
4211806	-0.00642347	0.0300639	0.112142
4211816	-0.00817239	0.0271697	0.123842
4211826	-0.0121194	0.0221766	0.13653
4211836	-0.0114816	0.0181205	0.144138
4211846	-0.00412309	0.017127	0.146737
4211856	-0.00217271	0.0182709	0.150024
4211866	-0.00700748	0.0195607	0.159298
4211876	-0.00988913	0.0188123	0.171941
4211886	-0.00617158	0.0179971	0.181782
4211896	-0.00446844	0.0181857	0.189343
4211906	-0.0048393	0.0162227	0.19577
4211916	-0.00841546	0.0131927	0.202032
4211926	-0.0151387	0.0133121	0.206957
4211936	-0.0142571	0.014454	0.21018
4211946	-0.0121815	0.0144845	0.21137
4211956	-0.0121797	0.0123631	0.211425
4211966	-0.0120547	0.0112498	0.209328
4211976	-0.00985587	0.0122881	0.208367
4211986	-0.0109868	0.0123124	0.209365
4211996	-0.012302	0.0102946	0.213603
4212006	-0.0114782	0.00615931	0.218025
4212016	-0.0103463	0.00507438	0.217054
4212026	-0.0112237	-0.00137067	0.213969
4212036	-0.0118535	-0.00686073	0.206607
4212046	-0.00909603	-0.00605965	0.196089
4212056	-0.00942087	-0.00531745	0.183254
4212066	-0.0075469	-0.00353682	0.169458
4212076	-0.00277317	-0.00586081	0.161273
4212086	-0.00264716	-0.00803494	0.159204
4212096	-0.00340211	-0.0124115	0.153939
4212106	-0.0017755	-0.0115861	0.144418
4212116	-0.00153065	-0.00744891	0.140061
4212126	-0.00373137	-0.0063659	0.140967
4212136	-0.00240982	-0.0117726	0.13692
4212146	0.00399649	-0.0206959	0.119406
4212156	0.00668025	-0.02244	0.0918866
4212166	0.00263715	-0.0198221	0.0691832
4212176	0.00161505	-0.0181794	0.0498852
4212186	0.00486565	-0.0133466	0.030761
4212196	0.0103177	-0.0106573	0.0107579
4212206	0.0157751	-0.0143319	-0.00908113
4212216	0.0165846	-0.0178567	-0.0228044
4212226	0.0128068	-0.0191365	-0.0315288
4212236	0.0092144	-0.0194348	-0.0434666
4212246	0.00895262	-0.0197797	-0.0573361
4212256	0.0119611	-0.0222659	-0.0720206
4212266	0.0176767	-0.0213532	-0.0780997
4212276	0.01981	-0.0160457	-0.0781084
4212286	0.0146494	-0.0129533	-0.0816965
4212296	0.0118164	-0.0141783	-0.0882332
4212306	0.00999165	-0.0174962	-0.0935889
4212316	0.0080446	-0.0228827	-0.096766
4212326	0.00659084	-0.0242375	-0.108548
4212336	0.00651431	-0.0236008	-0.125631
4212346	0.00869966	-0.0230126	-0.14471
4212356	0.00855839	-0.0191677	-0.160813
4212366	0.00810409	-0.0120087	-0.171688
4212376	0.00444794	-0.0101591	-0.182618
4212386	0.00148976	-0.0102708	-0.187058
4212396	0.00482118	-0.0113779	-0.188963
4212406	0.0115445	-0.0114974	-0.193888
4212416	0.016947	-0.00727081	-0.194739
4212426	0.0188364	-0.00716126	-0.190364
4212436	0.0186546	-0.0123855	-0.187041
4212446	0.0145035	-0.0124466	-0.189421
4212456	0.0105954	-0.00624907	-0.196213
4212466	0.0112774	-0.00547838	-0.207922
4212476	0.010832	-0.00892603	-0.218524
4212486	0.00925922	-0.0165921	-0.228018
4212496	0.0131476	-0.0158154	-0.239534
4212506	0.0199897	-0.00962353	-0.246748
4212516	0.0231305	-0.00534832	-0.245604
4212526	0.0171622	-0.000852346	-0.235414
4212536	0.013909	-0.00250316	-0.216372
4212546	0.0182625	-0.00525296	-0.198978
4212556	0.0241752	-0.00078702	-0.190208
4212566	0.0248672	0.00467658	-0.183909
4212576	0.020789	0.00822151	-0.169315
4212586	0.0153344	0.0087142	-0.149394
4212596	0.0154721	0.00911188	-0.133401
4212606	0.0182395	0.0146059	-0.125912
4212616	0.0212562	0.0189339	-0.122643
4212626	0.0226489	0.0192544	-0.109772
4212636	0.0236106	0.0155168	-0.089357
4212646	0.0256377	0.0160239	-0.0689876
4212656	0.0246437	0.0175064	-0.0520236
4212666	0.0205077	0.0157744	-0.0362318
4212676	0.0195146	0.0161963	-0.0192404
4212686	0.0189514	0.0217369	-0.00981951
4212696	0.0134789	0.0270828	-0.0081526
4212706	0.00864589	0.0262511	0.00117624
4212716	0.00677359	0.0223492	0.0150273
4212726	0.00823104	0.0194612	0.0269189
4212736	0.00880325	0.0196742	0.0354786
4212746	0.00824356	0.0209721	0.0450089
4212756	0.006742	0.0190334	0.0524334
4212766	0.00882196	0.0137606	0.0537602
4212776	0.00995648	0.00949359	0.0528717
4212786	0.00794387	0.00837588	0.0506471
4212796	0.00674903	0.0105481	0.0526524
4212806	0.00813568	0.0182933	0.0653322
4212816	0.0134915	0.0208751	0.0837151
4212826	0.0150145	0.0137184	0.0946543
4212836	0.0118755	0.0073216	0.0935645
4212846	0.00552285	0.00940418	0.0920637
4212856	0.00382888	0.0149692	0.102482
4212866	0.00704539	0.0196683	0.120682
4212876	0.0125307	0.0158336	0.137105
4212886	0.0142995	0.0117533	0.143715
4212896	0.0086422	0.0150568	0.148622
4212906	0.00612783	0.0205142	0.154729
4212916	0.00462103	0.0249393	0.161989
4212926	0.00060308	0.0305792	0.175466
4212936	-0.000640988	0.0342886	0.196623
4212946	0.00346601	0.0295229	0.218319
4212956	0.00455272	0.0246718	0.236637
4212966	-0.00128794	0.0248725	0.244813
4212976	-0.008201	0.0293137	0.252815
4212986	-0.00643659	0.0305368	0.259287
4212996	-0.000144482	0.0263592	0.261905
4213006	0.00018394	0.0213743	0.274849
4213016	-0.00413549	0.0165395	0.293909
4213026	-0.00878227	0.0156287	0.300052
4213036	-0.0115542	0.015438	0.292426
4213046	-0.0116911	0.0139797	0.27646
4213056	-0.0140879	0.0104488	0.262545
4213066	-0.0187491	0.0101485	0.250543
4213076	-0.0149866	0.0130992	0.241096
4213086	-0.0051775	0.0087961	0.238595
4213096	-0.00208998	0.002491	0.241076
4213106	-0.00239778	-0.000559092	0.246468
4213116	-0.00233924	0.00365722	0.245296
4213126	-0.00172019	0.00551486	0.234622
4213136	-0.00442731	0.00211561	0.226016
4213146	-0.00524521	-0.00117373	0.221786
4213156	-0.00248516	-0.0035547	0.21135
4213166	0.000705123	-0.000816822	0.193342
4213176	0.00571918	0.00629973	0.180663
4213186	0.00835252	0.00715339	0.172268
4213196	0.00753987	-0.00249994	0.168203
4213206	0.00867784	-0.0110097	0.167424
4213216	0.0109406	-0.0121189	0.165455
4213226	0.00691092	-0.00905061	0.160869
4213236	0.00482929	-0.00165653	0.159488
4213246	0.00557971	0.0080235	0.164615
4213256	0.00326025	0.0027951	0.16781
4213266	-0.00276697	-0.0132855	0.161464
4213276	-0.00365686	-0.0212415	0.140289
4213286	0.00405252	-0.0132977	0.118153
4213296	0.0112041	-0.00617695	0.105602
4213306	0.0117033	-0.00956988	0.0971882
4213316	0.0062933	-0.0216715	0.0801136
4213326	0.00130999	-0.0244116	0.0553592
4213336	-0.000846505	-0.018502	0.0369496
4213346	-0.0001086	-0.0103331	0.0239872
4213356	0.00396335	-0.00645328	0.00920224
4213366	0.0108628	-0.0113449	-0.016917
4213376	0.0137407	-0.0227141	-0.0473763
4213386	0.00799787	-0.0245274	-0.0775319
4213396	0.00696433	-0.00909603	-0.0971859
4213406	0.0147433	0.00669658	-0.102458
4213416	0.018199	0.00553656	-0.106486
4213426	0.0146145	-0.00430775	-0.118178
4213436	0.00794411	-0.00996816	-0.132295
4213446	0.00660908	-0.0050118	-0.146365
4213456	0.0107998	0.00517929	-0.163438
4213466	0.0127953	0.010089	-0.17944
4213476	0.0134242	0.000279307	-0.189813
4213486	0.0115436	-0.0104368	-0.193916
4213496	0.00638664	-0.0115869	-0.197394
4213506	0.00480247	-0.0054642	-0.207244
4213516	0.00774169	0.000560999	-0.221086
4213526	0.0106846	0.00234377	-0.234818
4213536	0.0147574	0.00516295	-0.249575
4213546	0.0164424	0.0102046	-0.260268
4213556	0.014117	0.0124007	-0.257265
4213566	0.0145038	0.0116323	-0.245492
4213576	0.0192875	0.0140013	-0.235669
4213586	0.0223697	0.0140601	-0.233353
4213596	0.0258262	0.0118395	-0.237354
4213606	0.0231812	0.00841403	-0.247021
4213616	0.0185217	0.00599229	-0.258968
4213626	0.0171288	0.00567186	-0.27184
4213636	0.0203983	0.00459111	-0.272682
4213646	0.0219827	-0.00153172	-0.262833
4213656	0.0234401	-0.00441945	-0.250941
4213666	0.020418	-0.00238335	-0.254374
4213676	0.0162482	0.00346935	-0.275035
4213686	0.0167259	0.00917208	-0.301812
4213696	0.021927	0.0151488	-0.31765
4213706	0.0223724	0.0185966	-0.307048
4213716	0.0188664	0.0223546	-0.283895
4213726	0.0188773	0.0259868	-0.26586
4213736	0.0219624	0.0228637	-0.263462
4213746	0.0200126	0.0206593	-0.266721
4213756	0.0176861	0.0239161	-0.263745
4213765	0.0214604	0.0294387	-0.255131
4213775	0.0255611	0.0320977	-0.233626
4213785	0.0269072	0.0307735	-0.20152
4213795	0.0264258	0.0293134	-0.174852
4213805	0.0276288	0.0339557	-0.158904
4213815	0.0326581	0.0394012	-0.153411
4213825	0.0354273	0.042774	-0.145867
4213835	0.0350133	0.0349234	-0.120098
4213845	0.033222	0.0250814	-0.0890269
4213855	0.0311574	0.0286832	-0.0721817
4213865	0.0309012	0.0383347	-0.0681802
4213875	0.0307734	0.0426301	-0.0661658
4213885	0.0292081	0.0428388	-0.0577343
4213895	0.0269599	0.0433378	-0.037621
4213905	0.0245893	0.0417681	-0.015329
4213915	0.0237201	0.0421373	-0.000461578
4213925	0.0220252	0.0487629	0.00992966
4213935	0.021589	0.0510688	0.0173087
4213945	0.0204589	0.0500324	0.018334
4213955	0.0173784	0.0478522	0.0160728
4213965	0.0163122	0.0446681	0.0160908
4213975	0.0180198	0.0395534	0.0237893
4213985	0.0206118	0.0323987	0.0347927
4213995	0.021003	0.0263268	0.0467025
4214005	0.0205737	0.0201472	0.0543003
4214015	0.022839	0.0158559	0.0524141
4214025	0.0255939	0.019839	0.041813
4214035	0.0237622	0.0250064	0.0362382
4214045	0.0161501	0.0324694	0.0377223
4214055	0.00980759	0.039245	0.0542294
4214065	0.0122854	0.0368358	0.0853645
4214075	0.0175844	0.0330801	0.104973
4214085	0.0161422	0.034297	0.111254
4214095	0.0107361	0.0343131	0.111996
4214105	0.0131283	0.026787	0.108067
4214115	0.0167142	0.0181497	0.102107
4214125	0.0150776	0.0126312	0.0936198
4214135	0.0121185	0.0135803	0.0891525
4214145	0.0117451	0.0147991	0.0954969
4214155	0.0153394	0.0129761	0.107489
4214165	0.0204359	0.0120312	0.112085
4214175	0.0160961	0.0152314	0.112808
4214185	0.0115122	0.0132334	0.117917
4214195	0.00931776	0.00689185	0.119015
4214205	0.00560558	0.00134289	0.109338
4214215	0.00692272	0.00123942	0.105154
4214225	0.0129011	0.00143647	0.112972
4214235	0.0159851	-0.000625968	0.115343
4214245	0.0124521	0.00223136	0.102261
4214255	0.00690734	0.00291049	0.086982
4214265	0.00425887	0.00372779	0.0772049
4214275	0.00362015	0.00884449	0.0695704
4214285	0.00349236	0.01314	0.0715848
4214295	0.00418973	0.0122395	0.078048
4214305	0.00607979	0.0112884	0.0824512
4214315	0.00923038	0.00389624	0.083897
4214325	0.0118096	-0.00476944	0.0768101
4214335	0.0123701	-0.00712812	0.0673072
4214345	0.0103565	-0.00718498	0.0650553
4214355	0.0104187	-0.00721145	0.0639933
4214365	0.0120496	-0.0116893	0.0546092
4214375	0.00996232	-0.0142914	0.0353565
4214385	0.00818455	-0.0159646	0.0107666
4214395	0.00841749	-0.0143991	-0.0116532
4214405	0.00941336	-0.018003	-0.0285624
4214415	0.0103481	-0.0226412	-0.0443825
4214425	0.00989723	-0.0197248	-0.0551481
4214435	0.0128527	-0.0164313	-0.0507903
4214445	0.0192063	-0.0195744	-0.0492619
4214455	0.0208993	-0.0240787	-0.0597081
4214465	0.0172492	-0.029654	-0.0704471
4214475	0.0169271	-0.0320938	-0.0831999
4214485	0.0198708	-0.0313718	-0.0969046
4214495	0.0240066	-0.0296397	-0.112697
